"submission_id","is_training","trial_id","comments","languages","trial_type","pc_prag_analysis","rating_adopt","inferred_goal_strength","is_critical","sentence_after","prolific_session_id","context","experiment_end_time","rating_g","marker","trial_key","age","g_implied_analysis","question_adopt","pc_prag","display_order","scale_step","scale_min","trial_index","item_id","education","scale_max","topic","list_num","g_implied","adoption_likelihood","sentence_before","condition_index","prolific_pid","marker_assignment_source","experiment_duration","is_filler","prolific_study_id","rt","question_goal","recommended_action","responseTime","experiment_start_time","mean_pc_prop_rating","pc_prop_c","marker_strength","marker_strength_c","pc_prag_c","inferred_goal_strength_prop","adoption_likelihood_prop","inferred_goal_strength_beta","adoption_likelihood_beta","condition"
"3610",FALSE,"8","","Deutsch","critical","high",54,70,TRUE,"die regionale Wirtschaft nachhaltig.","69ad10e7e1735c0b213c626f","Dein/e Gesprächspartner/in spricht mit dir über Einkaufsgewohnheiten. In eurem gemeinsamen Umfeld gehen die Meinungen dazu weit auseinander.",1772949964546,70,"soviel ich weiß","critical-8-c2-list3",50,"low","Wie wahrscheinlich ist es, dass du die empfohlene Handlung dann auch tatsächlich umsetzt?","high",1,1,0,1,"8","Höherer Abschluss",100,"lokalkauf",3,"low",54,"Der Einkauf bei lokalen Händlern stärkt",2,"615323ff5ce68a5dbe37eebe","comprehension_marker_assignment_balanced.csv",161987,FALSE,"69aca37e417992637b6ed8da",10988,"Wie stark hast du den Eindruck, dass die Sprecherin möchte, dass du ihre Empfehlung befolgst?","öfter bei lokalen Geschäften einkaufen",10988,1772949802559,58,1.56687494312043,1,-1,0.5,0.7,0.54,0.6996875,0.5399375,"Prag. Controversy: high
Goal: low"
"3610",FALSE,"5","","Deutsch","critical","high",64,77,TRUE,"entscheidend für die kognitive Leistungsfähigkeit.","69ad10e7e1735c0b213c626f","Dein/e Gesprächspartner/in spricht mit dir über Gesundheit und Wohlbefinden. In eurem gemeinsamen Umfeld gehen die Meinungen dazu stark auseinander.",1772949964546,77,"ja","critical-5-c3-list3",50,"high","Wie wahrscheinlich ist es, dass du die empfohlene Handlung dann auch tatsächlich umsetzt?","high",5,1,0,5,"5","Höherer Abschluss",100,"schlaf",3,"high",64,"Ausreichend Schlaf ist",3,"615323ff5ce68a5dbe37eebe","comprehension_marker_assignment_balanced.csv",161987,FALSE,"69aca37e417992637b6ed8da",6040,"Wie stark hast du den Eindruck, dass die Sprecherin möchte, dass du ihre Empfehlung befolgst?","auf feste Schlafzeiten achten",6040,1772949802559,74,0.0921691143012016,2,0,0.5,0.77,0.64,0.769578125,0.63978125,"Prag. Controversy: high
Goal: high"
"3610",FALSE,"3","","Deutsch","critical","low",63,93,TRUE,"den Stadtverkehr erheblich.","69ad10e7e1735c0b213c626f","Dein/e Gesprächspartner/in spricht mit dir über Verkehrspolitik in eurer Stadt. In eurem gemeinsamen Umfeld sehen das die meisten ähnlich, dass ein ausgebautes Nahverkehrsnetz den Stadtverkehr erheblich entlastet.",1772949964546,93,"bekanntlich","critical-3-c1-list3",50,"high","Wie wahrscheinlich ist es, dass du die empfohlene Handlung dann auch tatsächlich umsetzt?","low",7,1,0,7,"3","Höherer Abschluss",100,"stadtverkehr",3,"high",63,"Ein ausgebautes Nahverkehrsnetz entlastet",1,"615323ff5ce68a5dbe37eebe","comprehension_marker_assignment_balanced.csv",161987,FALSE,"69aca37e417992637b6ed8da",8651,"Wie stark hast du den Eindruck, dass die Sprecherin möchte, dass du ihre Empfehlung befolgst?","häufiger auf öffentliche Verkehrsmittel umsteigen",8651,1772949802559,71,0.368676457204806,3,1,-0.5,0.93,0.63,0.929328125,0.629796875,"Prag. Controversy: low
Goal: high"
"3610",FALSE,"2","","Deutsch","critical","low",52,70,TRUE,"die Gesundheit.","69ad10e7e1735c0b213c626f","Dein/e Gesprächspartner/in spricht mit dir über Ernährungsgewohnheiten. In eurem gemeinsamen Umfeld teilen die meisten die Überzeugung, dass eine überwiegend pflanzliche Ernährung die Gesundheit fördert.",1772949964546,70,"soviel ich weiß","critical-2-c0-list3",50,"low","Wie wahrscheinlich ist es, dass du die empfohlene Handlung dann auch tatsächlich umsetzt?","low",9,1,0,9,"2","Höherer Abschluss",100,"ernaehrung",3,"low",52,"Eine überwiegend pflanzliche Ernährung fördert",0,"615323ff5ce68a5dbe37eebe","comprehension_marker_assignment_balanced.csv",161987,FALSE,"69aca37e417992637b6ed8da",5692,"Wie stark hast du den Eindruck, dass die Sprecherin möchte, dass du ihre Empfehlung befolgst?","mehr pflanzliche Lebensmittel in deinen Alltag einbauen",5691,1772949802559,62,1.19819848591562,1,-1,-0.5,0.7,0.52,0.6996875,0.51996875,"Prag. Controversy: low
Goal: low"
"3610",FALSE,"7","","Deutsch","critical","low",64,88,TRUE,"das Risiko für Herz-Kreislauf-Erkrankungen deutlich.","69ad10e7e1735c0b213c626f","Dein/e Gesprächspartner/in spricht mit dir über gesunden Lebensstil. In eurem gemeinsamen Umfeld teilen die meisten die Ansicht, dass regelmäßige körperliche Bewegung das Risiko für Herz-Kreislauf-Erkrankungen deutlich senkt.",1772949964546,88,"bekanntlich","critical-7-c1-list3",50,"high","Wie wahrscheinlich ist es, dass du die empfohlene Handlung dann auch tatsächlich umsetzt?","low",10,1,0,10,"7","Höherer Abschluss",100,"sport",3,"high",64,"Regelmäßige körperliche Bewegung senkt",1,"615323ff5ce68a5dbe37eebe","comprehension_marker_assignment_balanced.csv",161987,FALSE,"69aca37e417992637b6ed8da",6731,"Wie stark hast du den Eindruck, dass die Sprecherin möchte, dass du ihre Empfehlung befolgst?","regelmäßig Sport in deinen Alltag integrieren",6731,1772949802559,83,-0.737352914409613,3,1,-0.5,0.88,0.64,0.87940625,0.63978125,"Prag. Controversy: low
Goal: high"
"3610",FALSE,"4","","Deutsch","critical","high",72,83,TRUE,"in der heutigen Arbeitswelt unverzichtbar.","69ad10e7e1735c0b213c626f","Dein/e Gesprächspartner/in spricht mit dir über Berufsausbildung und Weiterbildung. In eurem gemeinsamen Umfeld gehen die Meinungen dazu stark auseinander.",1772949964546,83,"ja","critical-4-c2-list3",50,"low","Wie wahrscheinlich ist es, dass du die empfohlene Handlung dann auch tatsächlich umsetzt?","high",12,1,0,12,"4","Höherer Abschluss",100,"digitalisierung",3,"low",72,"Digitale Kompetenzen sind",2,"615323ff5ce68a5dbe37eebe","comprehension_marker_assignment_balanced.csv",161987,FALSE,"69aca37e417992637b6ed8da",12312,"Wie stark hast du den Eindruck, dass die Sprecherin möchte, dass du ihre Empfehlung befolgst?","regelmäßig digitale Weiterbildungsangebote nutzen",12312,1772949802559,85,-0.921691143012016,2,0,0.5,0.83,0.72,0.829484375,0.71965625,"Prag. Controversy: high
Goal: low"
"3610",FALSE,"1","","Deutsch","critical","high",55,90,TRUE,"durch menschliche Aktivitäten verursacht.","69ad10e7e1735c0b213c626f","Dein/e Gesprächspartner/in spricht mit dir über den Klimawandel. In eurem gemeinsamen Umfeld gehen die Meinungen dazu allerdings stark auseinander.",1772949964546,90,"bekanntlich","critical-1-c3-list3",50,"high","Wie wahrscheinlich ist es, dass du die empfohlene Handlung dann auch tatsächlich umsetzt?","high",14,1,0,14,"1","Höherer Abschluss",100,"klimawandel",3,"high",55,"Der Klimawandel wird",3,"615323ff5ce68a5dbe37eebe","comprehension_marker_assignment_balanced.csv",161987,FALSE,"69aca37e417992637b6ed8da",5236,"Wie stark hast du den Eindruck, dass die Sprecherin möchte, dass du ihre Empfehlung befolgst?","auf Flugreisen verzichten",5236,1772949802559,88,-1.19819848591562,3,1,0.5,0.9,0.55,0.899375,0.549921875,"Prag. Controversy: high
Goal: high"
"3610",FALSE,"6","","Deutsch","critical","low",56,75,TRUE,"den Meeresökosystemen erheblich.","69ad10e7e1735c0b213c626f","Dein/e Gesprächspartner/in spricht mit dir über Umweltschutz. In eurem gemeinsamen Umfeld teilen die meisten die Überzeugung, dass Einwegplastik den Meeresökosystemen erheblich schadet.",1772949964546,75,"soviel ich weiß","critical-6-c0-list3",50,"low","Wie wahrscheinlich ist es, dass du die empfohlene Handlung dann auch tatsächlich umsetzt?","low",15,1,0,15,"6","Höherer Abschluss",100,"plastik",3,"low",56,"Einwegplastik schadet",0,"615323ff5ce68a5dbe37eebe","comprehension_marker_assignment_balanced.csv",161987,FALSE,"69aca37e417992637b6ed8da",5890,"Wie stark hast du den Eindruck, dass die Sprecherin möchte, dass du ihre Empfehlung befolgst?","konsequent auf Einwegplastik verzichten",5890,1772949802559,79,-0.368676457204806,1,-1,-0.5,0.75,0.56,0.749609375,0.55990625,"Prag. Controversy: low
Goal: low"
"3611",FALSE,"8","","Deutsch","critical","high",8,15,TRUE,"die regionale Wirtschaft nachhaltig.","69ad10c182ae921394d7131b","Dein/e Gesprächspartner/in spricht mit dir über Einkaufsgewohnheiten. In eurem gemeinsamen Umfeld gehen die Meinungen dazu weit auseinander.",1772950295926,15,"soviel ich weiß","critical-8-c3-list0",32,"high","Wie wahrscheinlich ist es, dass du die empfohlene Handlung dann auch tatsächlich umsetzt?","high",4,1,0,4,"8","Höherer Abschluss",100,"lokalkauf",0,"high",8,"Der Einkauf bei lokalen Händlern stärkt",3,"5b8eab705206680001da3583","comprehension_marker_assignment_balanced.csv",593447,FALSE,"69aca37e417992637b6ed8da",5513,"Wie stark hast du den Eindruck, dass die Sprecherin möchte, dass du ihre Empfehlung befolgst?","öfter bei lokalen Geschäften einkaufen",5513,1772949702479,58,1.56687494312043,1,-1,0.5,0.15,0.08,0.150546875,0.08065625,"Prag. Controversy: high
Goal: high"
"3611",FALSE,"4","","Deutsch","critical","high",22,22,TRUE,"in der heutigen Arbeitswelt unverzichtbar.","69ad10c182ae921394d7131b","Dein/e Gesprächspartner/in spricht mit dir über Berufsausbildung und Weiterbildung. In eurem gemeinsamen Umfeld gehen die Meinungen dazu stark auseinander.",1772950295926,22,"bekanntlich","critical-4-c3-list0",32,"high","Wie wahrscheinlich ist es, dass du die empfohlene Handlung dann auch tatsächlich umsetzt?","high",5,1,0,5,"4","Höherer Abschluss",100,"digitalisierung",0,"high",22,"Digitale Kompetenzen sind",3,"5b8eab705206680001da3583","comprehension_marker_assignment_balanced.csv",593447,FALSE,"69aca37e417992637b6ed8da",4608,"Wie stark hast du den Eindruck, dass die Sprecherin möchte, dass du ihre Empfehlung befolgst?","regelmäßig digitale Weiterbildungsangebote nutzen",4608,1772949702479,85,-0.921691143012016,3,1,0.5,0.22,0.22,0.2204375,0.2204375,"Prag. Controversy: high
Goal: high"
"3611",FALSE,"2","","Deutsch","critical","low",27,29,TRUE,"die Gesundheit.","69ad10c182ae921394d7131b","Dein/e Gesprächspartner/in spricht mit dir über Ernährungsgewohnheiten. In eurem gemeinsamen Umfeld teilen die meisten die Überzeugung, dass eine überwiegend pflanzliche Ernährung die Gesundheit fördert.",1772950295926,29,"bekanntlich","critical-2-c1-list0",32,"high","Wie wahrscheinlich ist es, dass du die empfohlene Handlung dann auch tatsächlich umsetzt?","low",6,1,0,6,"2","Höherer Abschluss",100,"ernaehrung",0,"high",27,"Eine überwiegend pflanzliche Ernährung fördert",1,"5b8eab705206680001da3583","comprehension_marker_assignment_balanced.csv",593447,FALSE,"69aca37e417992637b6ed8da",3388,"Wie stark hast du den Eindruck, dass die Sprecherin möchte, dass du ihre Empfehlung befolgst?","mehr pflanzliche Lebensmittel in deinen Alltag einbauen",3388,1772949702479,62,1.19819848591562,3,1,-0.5,0.29,0.27,0.290328125,0.270359375,"Prag. Controversy: low
Goal: high"
"3611",FALSE,"5","","Deutsch","critical","low",25,26,TRUE,"entscheidend für die kognitive Leistungsfähigkeit.","69ad10c182ae921394d7131b","Dein/e Gesprächspartner/in spricht mit dir über Gesundheit und Wohlbefinden. In eurem gemeinsamen Umfeld teilen die meisten die Ansicht, dass ausreichend Schlaf entscheidend für die kognitive Leistungsfähigkeit ist.",1772950295926,26,"soviel ich weiß","critical-5-c0-list0",32,"low","Wie wahrscheinlich ist es, dass du die empfohlene Handlung dann auch tatsächlich umsetzt?","low",7,1,0,7,"5","Höherer Abschluss",100,"schlaf",0,"low",25,"Ausreichend Schlaf ist",0,"5b8eab705206680001da3583","comprehension_marker_assignment_balanced.csv",593447,FALSE,"69aca37e417992637b6ed8da",9957,"Wie stark hast du den Eindruck, dass die Sprecherin möchte, dass du ihre Empfehlung befolgst?","auf feste Schlafzeiten achten",9957,1772949702479,74,0.0921691143012016,1,-1,-0.5,0.26,0.25,0.260375,0.250390625,"Prag. Controversy: low
Goal: low"
"3611",FALSE,"1","","Deutsch","critical","low",65,63,TRUE,"durch menschliche Aktivitäten verursacht.","69ad10c182ae921394d7131b","Dein/e Gesprächspartner/in spricht mit dir über den Klimawandel. In eurem gemeinsamen Umfeld teilen die meisten die Ansicht, dass der Klimawandel durch menschliche Aktivitäten verursacht wird.",1772950295926,63,"ja","critical-1-c0-list0",32,"low","Wie wahrscheinlich ist es, dass du die empfohlene Handlung dann auch tatsächlich umsetzt?","low",9,1,0,9,"1","Höherer Abschluss",100,"klimawandel",0,"low",65,"Der Klimawandel wird",0,"5b8eab705206680001da3583","comprehension_marker_assignment_balanced.csv",593447,FALSE,"69aca37e417992637b6ed8da",6669,"Wie stark hast du den Eindruck, dass die Sprecherin möchte, dass du ihre Empfehlung befolgst?","auf Flugreisen verzichten",6669,1772949702479,88,-1.19819848591562,2,0,-0.5,0.63,0.65,0.629796875,0.649765625,"Prag. Controversy: low
Goal: low"
"3611",FALSE,"3","","Deutsch","critical","high",11,10,TRUE,"den Stadtverkehr erheblich.","69ad10c182ae921394d7131b","Dein/e Gesprächspartner/in spricht mit dir über Verkehrspolitik in eurer Stadt. In eurem gemeinsamen Umfeld gehen die Meinungen dazu weit auseinander.",1772950295926,10,"soviel ich weiß","critical-3-c2-list0",32,"low","Wie wahrscheinlich ist es, dass du die empfohlene Handlung dann auch tatsächlich umsetzt?","high",10,1,0,10,"3","Höherer Abschluss",100,"stadtverkehr",0,"low",11,"Ein ausgebautes Nahverkehrsnetz entlastet",2,"5b8eab705206680001da3583","comprehension_marker_assignment_balanced.csv",593447,FALSE,"69aca37e417992637b6ed8da",4638,"Wie stark hast du den Eindruck, dass die Sprecherin möchte, dass du ihre Empfehlung befolgst?","häufiger auf öffentliche Verkehrsmittel umsteigen",4638,1772949702479,71,0.368676457204806,1,-1,0.5,0.1,0.11,0.100625,0.110609375,"Prag. Controversy: high
Goal: low"
"3611",FALSE,"6","","Deutsch","critical","low",32,32,TRUE,"den Meeresökosystemen erheblich.","69ad10c182ae921394d7131b","Dein/e Gesprächspartner/in spricht mit dir über Umweltschutz. In eurem gemeinsamen Umfeld teilen die meisten die Überzeugung, dass Einwegplastik den Meeresökosystemen erheblich schadet.",1772950295926,32,"bekanntlich","critical-6-c1-list0",32,"high","Wie wahrscheinlich ist es, dass du die empfohlene Handlung dann auch tatsächlich umsetzt?","low",13,1,0,13,"6","Höherer Abschluss",100,"plastik",0,"high",32,"Einwegplastik schadet",1,"5b8eab705206680001da3583","comprehension_marker_assignment_balanced.csv",593447,FALSE,"69aca37e417992637b6ed8da",4051,"Wie stark hast du den Eindruck, dass die Sprecherin möchte, dass du ihre Empfehlung befolgst?","konsequent auf Einwegplastik verzichten",4051,1772949702479,79,-0.368676457204806,3,1,-0.5,0.32,0.32,0.32028125,0.32028125,"Prag. Controversy: low
Goal: high"
"3611",FALSE,"7","","Deutsch","critical","high",62,61,TRUE,"das Risiko für Herz-Kreislauf-Erkrankungen deutlich.","69ad10c182ae921394d7131b","Dein/e Gesprächspartner/in spricht mit dir über gesunden Lebensstil. In eurem gemeinsamen Umfeld gehen die Meinungen dazu stark auseinander.",1772950295926,61,"ja","critical-7-c2-list0",32,"low","Wie wahrscheinlich ist es, dass du die empfohlene Handlung dann auch tatsächlich umsetzt?","high",14,1,0,14,"7","Höherer Abschluss",100,"sport",0,"low",62,"Regelmäßige körperliche Bewegung senkt",2,"5b8eab705206680001da3583","comprehension_marker_assignment_balanced.csv",593447,FALSE,"69aca37e417992637b6ed8da",5046,"Wie stark hast du den Eindruck, dass die Sprecherin möchte, dass du ihre Empfehlung befolgst?","regelmäßig Sport in deinen Alltag integrieren",5046,1772949702479,83,-0.737352914409613,2,0,0.5,0.61,0.62,0.609828125,0.6198125,"Prag. Controversy: high
Goal: low"
"3612",FALSE,"7","","Deutsch","critical","high",63,46,TRUE,"das Risiko für Herz-Kreislauf-Erkrankungen deutlich.","69ad13bc107bead9257c5368","Dein/e Gesprächspartner/in spricht mit dir über gesunden Lebensstil. In eurem gemeinsamen Umfeld gehen die Meinungen dazu stark auseinander.",1772950664133,46,"bekanntlich","critical-7-c3-list1",28,"high","Wie wahrscheinlich ist es, dass du die empfohlene Handlung dann auch tatsächlich umsetzt?","high",1,1,0,1,"7","Bachelor",100,"sport",1,"high",63,"Regelmäßige körperliche Bewegung senkt",3,"631f2951646392c69506e361","comprehension_marker_assignment_balanced.csv",198876,FALSE,"69aca37e417992637b6ed8da",10586,"Wie stark hast du den Eindruck, dass die Sprecherin möchte, dass du ihre Empfehlung befolgst?","regelmäßig Sport in deinen Alltag integrieren",10586,1772950465257,83,-0.737352914409613,3,1,0.5,0.46,0.63,0.4600625,0.629796875,"Prag. Controversy: high
Goal: high"
"3612",FALSE,"3","","Deutsch","critical","high",45,54,TRUE,"den Stadtverkehr erheblich.","69ad13bc107bead9257c5368","Dein/e Gesprächspartner/in spricht mit dir über Verkehrspolitik in eurer Stadt. In eurem gemeinsamen Umfeld gehen die Meinungen dazu weit auseinander.",1772950664133,54,"ja","critical-3-c3-list1",28,"high","Wie wahrscheinlich ist es, dass du die empfohlene Handlung dann auch tatsächlich umsetzt?","high",2,1,0,2,"3","Bachelor",100,"stadtverkehr",1,"high",45,"Ein ausgebautes Nahverkehrsnetz entlastet",3,"631f2951646392c69506e361","comprehension_marker_assignment_balanced.csv",198876,FALSE,"69aca37e417992637b6ed8da",9130,"Wie stark hast du den Eindruck, dass die Sprecherin möchte, dass du ihre Empfehlung befolgst?","häufiger auf öffentliche Verkehrsmittel umsteigen",9130,1772950465257,71,0.368676457204806,2,0,0.5,0.54,0.45,0.5399375,0.450078125,"Prag. Controversy: high
Goal: high"
"3612",FALSE,"6","","Deutsch","critical","high",55,57,TRUE,"den Meeresökosystemen erheblich.","69ad13bc107bead9257c5368","Dein/e Gesprächspartner/in spricht mit dir über Umweltschutz. In eurem gemeinsamen Umfeld herrschen dazu sehr unterschiedliche Meinungen.",1772950664133,57,"ja","critical-6-c2-list1",28,"low","Wie wahrscheinlich ist es, dass du die empfohlene Handlung dann auch tatsächlich umsetzt?","high",3,1,0,3,"6","Bachelor",100,"plastik",1,"low",55,"Einwegplastik schadet",2,"631f2951646392c69506e361","comprehension_marker_assignment_balanced.csv",198876,FALSE,"69aca37e417992637b6ed8da",8950,"Wie stark hast du den Eindruck, dass die Sprecherin möchte, dass du ihre Empfehlung befolgst?","konsequent auf Einwegplastik verzichten",8950,1772950465257,79,-0.368676457204806,2,0,0.5,0.57,0.55,0.569890625,0.549921875,"Prag. Controversy: high
Goal: low"
"3612",FALSE,"4","","Deutsch","critical","low",21,26,TRUE,"in der heutigen Arbeitswelt unverzichtbar.","69ad13bc107bead9257c5368","Dein/e Gesprächspartner/in spricht mit dir über Berufsausbildung und Weiterbildung. In eurem gemeinsamen Umfeld teilen die meisten die Ansicht, dass digitale Kompetenzen in der heutigen Arbeitswelt unverzichtbar sind.",1772950664133,26,"ja","critical-4-c0-list1",28,"low","Wie wahrscheinlich ist es, dass du die empfohlene Handlung dann auch tatsächlich umsetzt?","low",7,1,0,7,"4","Bachelor",100,"digitalisierung",1,"low",21,"Digitale Kompetenzen sind",0,"631f2951646392c69506e361","comprehension_marker_assignment_balanced.csv",198876,FALSE,"69aca37e417992637b6ed8da",8201,"Wie stark hast du den Eindruck, dass die Sprecherin möchte, dass du ihre Empfehlung befolgst?","regelmäßig digitale Weiterbildungsangebote nutzen",8202,1772950465257,85,-0.921691143012016,2,0,-0.5,0.26,0.21,0.260375,0.210453125,"Prag. Controversy: low
Goal: low"
"3612",FALSE,"8","","Deutsch","critical","low",37,36,TRUE,"die regionale Wirtschaft nachhaltig.","69ad13bc107bead9257c5368","Dein/e Gesprächspartner/in spricht mit dir über Einkaufsgewohnheiten. In eurem gemeinsamen Umfeld teilen die meisten die Überzeugung, dass der Einkauf bei lokalen Händlern die regionale Wirtschaft nachhaltig stärkt.",1772950664133,36,"soviel ich weiß","critical-8-c0-list1",28,"low","Wie wahrscheinlich ist es, dass du die empfohlene Handlung dann auch tatsächlich umsetzt?","low",8,1,0,8,"8","Bachelor",100,"lokalkauf",1,"low",37,"Der Einkauf bei lokalen Händlern stärkt",0,"631f2951646392c69506e361","comprehension_marker_assignment_balanced.csv",198876,FALSE,"69aca37e417992637b6ed8da",6330,"Wie stark hast du den Eindruck, dass die Sprecherin möchte, dass du ihre Empfehlung befolgst?","öfter bei lokalen Geschäften einkaufen",6330,1772950465257,58,1.56687494312043,1,-1,-0.5,0.36,0.37,0.36021875,0.370203125,"Prag. Controversy: low
Goal: low"
"3612",FALSE,"5","","Deutsch","critical","low",89,15,TRUE,"entscheidend für die kognitive Leistungsfähigkeit.","69ad13bc107bead9257c5368","Dein/e Gesprächspartner/in spricht mit dir über Gesundheit und Wohlbefinden. In eurem gemeinsamen Umfeld teilen die meisten die Ansicht, dass ausreichend Schlaf entscheidend für die kognitive Leistungsfähigkeit ist.",1772950664133,15,"bekanntlich","critical-5-c1-list1",28,"high","Wie wahrscheinlich ist es, dass du die empfohlene Handlung dann auch tatsächlich umsetzt?","low",10,1,0,10,"5","Bachelor",100,"schlaf",1,"high",89,"Ausreichend Schlaf ist",1,"631f2951646392c69506e361","comprehension_marker_assignment_balanced.csv",198876,FALSE,"69aca37e417992637b6ed8da",5930,"Wie stark hast du den Eindruck, dass die Sprecherin möchte, dass du ihre Empfehlung befolgst?","auf feste Schlafzeiten achten",5930,1772950465257,74,0.0921691143012016,3,1,-0.5,0.15,0.89,0.150546875,0.889390625,"Prag. Controversy: low
Goal: high"
"3612",FALSE,"1","","Deutsch","critical","low",42,66,TRUE,"durch menschliche Aktivitäten verursacht.","69ad13bc107bead9257c5368","Dein/e Gesprächspartner/in spricht mit dir über den Klimawandel. In eurem gemeinsamen Umfeld teilen die meisten die Ansicht, dass der Klimawandel durch menschliche Aktivitäten verursacht wird.",1772950664133,66,"bekanntlich","critical-1-c1-list1",28,"high","Wie wahrscheinlich ist es, dass du die empfohlene Handlung dann auch tatsächlich umsetzt?","low",11,1,0,11,"1","Bachelor",100,"klimawandel",1,"high",42,"Der Klimawandel wird",1,"631f2951646392c69506e361","comprehension_marker_assignment_balanced.csv",198876,FALSE,"69aca37e417992637b6ed8da",6283,"Wie stark hast du den Eindruck, dass die Sprecherin möchte, dass du ihre Empfehlung befolgst?","auf Flugreisen verzichten",6283,1772950465257,88,-1.19819848591562,3,1,-0.5,0.66,0.42,0.65975,0.420125,"Prag. Controversy: low
Goal: high"
"3612",FALSE,"2","","Deutsch","critical","high",46,56,TRUE,"die Gesundheit.","69ad13bc107bead9257c5368","Dein/e Gesprächspartner/in spricht mit dir über Ernährungsgewohnheiten. In eurem gemeinsamen Umfeld herrschen dazu sehr unterschiedliche Meinungen.",1772950664133,56,"soviel ich weiß","critical-2-c2-list1",28,"low","Wie wahrscheinlich ist es, dass du die empfohlene Handlung dann auch tatsächlich umsetzt?","high",13,1,0,13,"2","Bachelor",100,"ernaehrung",1,"low",46,"Eine überwiegend pflanzliche Ernährung fördert",2,"631f2951646392c69506e361","comprehension_marker_assignment_balanced.csv",198876,FALSE,"69aca37e417992637b6ed8da",7433,"Wie stark hast du den Eindruck, dass die Sprecherin möchte, dass du ihre Empfehlung befolgst?","mehr pflanzliche Lebensmittel in deinen Alltag einbauen",7433,1772950465257,62,1.19819848591562,1,-1,0.5,0.56,0.46,0.55990625,0.4600625,"Prag. Controversy: high
Goal: low"
"3613",FALSE,"8","","Deutsch","critical","low",78,76,TRUE,"die regionale Wirtschaft nachhaltig.","69ad139ca47973d996dfed1c","Dein/e Gesprächspartner/in spricht mit dir über Einkaufsgewohnheiten. In eurem gemeinsamen Umfeld teilen die meisten die Überzeugung, dass der Einkauf bei lokalen Händlern die regionale Wirtschaft nachhaltig stärkt.",1772950715025,76,"bekanntlich","critical-8-c1-list2",38,"high","Wie wahrscheinlich ist es, dass du die empfohlene Handlung dann auch tatsächlich umsetzt?","low",2,1,0,2,"8","Abitur",100,"lokalkauf",2,"high",78,"Der Einkauf bei lokalen Händlern stärkt",1,"5cb19af6c642510015463de2","comprehension_marker_assignment_balanced.csv",284286,FALSE,"69aca37e417992637b6ed8da",31591,"Wie stark hast du den Eindruck, dass die Sprecherin möchte, dass du ihre Empfehlung befolgst?","öfter bei lokalen Geschäften einkaufen",31591,1772950430739,58,1.56687494312043,3,1,-0.5,0.76,0.78,0.75959375,0.7795625,"Prag. Controversy: low
Goal: high"
"3613",FALSE,"3","","Deutsch","critical","low",50,51,TRUE,"den Stadtverkehr erheblich.","69ad139ca47973d996dfed1c","Dein/e Gesprächspartner/in spricht mit dir über Verkehrspolitik in eurer Stadt. In eurem gemeinsamen Umfeld sehen das die meisten ähnlich, dass ein ausgebautes Nahverkehrsnetz den Stadtverkehr erheblich entlastet.",1772950715025,51,"soviel ich weiß","critical-3-c0-list2",38,"low","Wie wahrscheinlich ist es, dass du die empfohlene Handlung dann auch tatsächlich umsetzt?","low",3,1,0,3,"3","Abitur",100,"stadtverkehr",2,"low",50,"Ein ausgebautes Nahverkehrsnetz entlastet",0,"5cb19af6c642510015463de2","comprehension_marker_assignment_balanced.csv",284286,FALSE,"69aca37e417992637b6ed8da",29128,"Wie stark hast du den Eindruck, dass die Sprecherin möchte, dass du ihre Empfehlung befolgst?","häufiger auf öffentliche Verkehrsmittel umsteigen",29128,1772950430739,71,0.368676457204806,1,-1,-0.5,0.51,0.5,0.509984375,0.5,"Prag. Controversy: low
Goal: low"
"3613",FALSE,"7","","Deutsch","critical","low",73,100,TRUE,"das Risiko für Herz-Kreislauf-Erkrankungen deutlich.","69ad139ca47973d996dfed1c","Dein/e Gesprächspartner/in spricht mit dir über gesunden Lebensstil. In eurem gemeinsamen Umfeld teilen die meisten die Ansicht, dass regelmäßige körperliche Bewegung das Risiko für Herz-Kreislauf-Erkrankungen deutlich senkt.",1772950715025,100,"ja","critical-7-c0-list2",38,"low","Wie wahrscheinlich ist es, dass du die empfohlene Handlung dann auch tatsächlich umsetzt?","low",4,1,0,4,"7","Abitur",100,"sport",2,"low",73,"Regelmäßige körperliche Bewegung senkt",0,"5cb19af6c642510015463de2","comprehension_marker_assignment_balanced.csv",284286,FALSE,"69aca37e417992637b6ed8da",13984,"Wie stark hast du den Eindruck, dass die Sprecherin möchte, dass du ihre Empfehlung befolgst?","regelmäßig Sport in deinen Alltag integrieren",13984,1772950430739,83,-0.737352914409613,2,0,-0.5,1,0.73,0.99921875,0.729640625,"Prag. Controversy: low
Goal: low"
"3613",FALSE,"1","","Deutsch","critical","high",50,51,TRUE,"durch menschliche Aktivitäten verursacht.","69ad139ca47973d996dfed1c","Dein/e Gesprächspartner/in spricht mit dir über den Klimawandel. In eurem gemeinsamen Umfeld gehen die Meinungen dazu allerdings stark auseinander.",1772950715025,51,"ja","critical-1-c2-list2",38,"low","Wie wahrscheinlich ist es, dass du die empfohlene Handlung dann auch tatsächlich umsetzt?","high",6,1,0,6,"1","Abitur",100,"klimawandel",2,"low",50,"Der Klimawandel wird",2,"5cb19af6c642510015463de2","comprehension_marker_assignment_balanced.csv",284286,FALSE,"69aca37e417992637b6ed8da",14664,"Wie stark hast du den Eindruck, dass die Sprecherin möchte, dass du ihre Empfehlung befolgst?","auf Flugreisen verzichten",14664,1772950430739,88,-1.19819848591562,2,0,0.5,0.51,0.5,0.509984375,0.5,"Prag. Controversy: high
Goal: low"
"3613",FALSE,"6","","Deutsch","critical","high",100,100,TRUE,"den Meeresökosystemen erheblich.","69ad139ca47973d996dfed1c","Dein/e Gesprächspartner/in spricht mit dir über Umweltschutz. In eurem gemeinsamen Umfeld herrschen dazu sehr unterschiedliche Meinungen.",1772950715025,100,"ja","critical-6-c3-list2",38,"high","Wie wahrscheinlich ist es, dass du die empfohlene Handlung dann auch tatsächlich umsetzt?","high",7,1,0,7,"6","Abitur",100,"plastik",2,"high",100,"Einwegplastik schadet",3,"5cb19af6c642510015463de2","comprehension_marker_assignment_balanced.csv",284286,FALSE,"69aca37e417992637b6ed8da",7848,"Wie stark hast du den Eindruck, dass die Sprecherin möchte, dass du ihre Empfehlung befolgst?","konsequent auf Einwegplastik verzichten",7848,1772950430739,79,-0.368676457204806,2,0,0.5,1,1,0.99921875,0.99921875,"Prag. Controversy: high
Goal: high"
"3613",FALSE,"4","","Deutsch","critical","low",85,100,TRUE,"in der heutigen Arbeitswelt unverzichtbar.","69ad139ca47973d996dfed1c","Dein/e Gesprächspartner/in spricht mit dir über Berufsausbildung und Weiterbildung. In eurem gemeinsamen Umfeld teilen die meisten die Ansicht, dass digitale Kompetenzen in der heutigen Arbeitswelt unverzichtbar sind.",1772950715025,100,"bekanntlich","critical-4-c1-list2",38,"high","Wie wahrscheinlich ist es, dass du die empfohlene Handlung dann auch tatsächlich umsetzt?","low",11,1,0,11,"4","Abitur",100,"digitalisierung",2,"high",85,"Digitale Kompetenzen sind",1,"5cb19af6c642510015463de2","comprehension_marker_assignment_balanced.csv",284286,FALSE,"69aca37e417992637b6ed8da",12856,"Wie stark hast du den Eindruck, dass die Sprecherin möchte, dass du ihre Empfehlung befolgst?","regelmäßig digitale Weiterbildungsangebote nutzen",12856,1772950430739,85,-0.921691143012016,3,1,-0.5,1,0.85,0.99921875,0.849453125,"Prag. Controversy: low
Goal: high"
"3613",FALSE,"5","","Deutsch","critical","high",86,100,TRUE,"entscheidend für die kognitive Leistungsfähigkeit.","69ad139ca47973d996dfed1c","Dein/e Gesprächspartner/in spricht mit dir über Gesundheit und Wohlbefinden. In eurem gemeinsamen Umfeld gehen die Meinungen dazu stark auseinander.",1772950715025,100,"ja","critical-5-c2-list2",38,"low","Wie wahrscheinlich ist es, dass du die empfohlene Handlung dann auch tatsächlich umsetzt?","high",13,1,0,13,"5","Abitur",100,"schlaf",2,"low",86,"Ausreichend Schlaf ist",2,"5cb19af6c642510015463de2","comprehension_marker_assignment_balanced.csv",284286,FALSE,"69aca37e417992637b6ed8da",10152,"Wie stark hast du den Eindruck, dass die Sprecherin möchte, dass du ihre Empfehlung befolgst?","auf feste Schlafzeiten achten",10152,1772950430739,74,0.0921691143012016,2,0,0.5,1,0.86,0.99921875,0.8594375,"Prag. Controversy: high
Goal: low"
"3613",FALSE,"2","","Deutsch","critical","high",93,100,TRUE,"die Gesundheit.","69ad139ca47973d996dfed1c","Dein/e Gesprächspartner/in spricht mit dir über Ernährungsgewohnheiten. In eurem gemeinsamen Umfeld herrschen dazu sehr unterschiedliche Meinungen.",1772950715025,100,"soviel ich weiß","critical-2-c3-list2",38,"high","Wie wahrscheinlich ist es, dass du die empfohlene Handlung dann auch tatsächlich umsetzt?","high",16,1,0,16,"2","Abitur",100,"ernaehrung",2,"high",93,"Eine überwiegend pflanzliche Ernährung fördert",3,"5cb19af6c642510015463de2","comprehension_marker_assignment_balanced.csv",284286,FALSE,"69aca37e417992637b6ed8da",6176,"Wie stark hast du den Eindruck, dass die Sprecherin möchte, dass du ihre Empfehlung befolgst?","mehr pflanzliche Lebensmittel in deinen Alltag einbauen",6176,1772950430739,62,1.19819848591562,1,-1,0.5,1,0.93,0.99921875,0.929328125,"Prag. Controversy: high
Goal: high"
"3614",FALSE,"1","","deutsch","critical","low",38,71,TRUE,"durch menschliche Aktivitäten verursacht.","69ad1661eeb2031de8f1417d","Dein/e Gesprächspartner/in spricht mit dir über den Klimawandel. In eurem gemeinsamen Umfeld teilen die meisten die Ansicht, dass der Klimawandel durch menschliche Aktivitäten verursacht wird.",1772951708927,71,"bekanntlich","critical-1-c1-list1",37,"high","Wie wahrscheinlich ist es, dass du die empfohlene Handlung dann auch tatsächlich umsetzt?","low",1,1,0,1,"1","Bachelor",100,"klimawandel",1,"high",38,"Der Klimawandel wird",1,"5aad4225811b2000016f6ed1","comprehension_marker_assignment_balanced.csv",562042,FALSE,"69aca37e417992637b6ed8da",18813,"Wie stark hast du den Eindruck, dass die Sprecherin möchte, dass du ihre Empfehlung befolgst?","auf Flugreisen verzichten",18813,1772951146885,88,-1.19819848591562,3,1,-0.5,0.71,0.38,0.709671875,0.3801875,"Prag. Controversy: low
Goal: high"
"3614",FALSE,"3","","deutsch","critical","high",57,78,TRUE,"den Stadtverkehr erheblich.","69ad1661eeb2031de8f1417d","Dein/e Gesprächspartner/in spricht mit dir über Verkehrspolitik in eurer Stadt. In eurem gemeinsamen Umfeld gehen die Meinungen dazu weit auseinander.",1772951708927,78,"ja","critical-3-c3-list1",37,"high","Wie wahrscheinlich ist es, dass du die empfohlene Handlung dann auch tatsächlich umsetzt?","high",2,1,0,2,"3","Bachelor",100,"stadtverkehr",1,"high",57,"Ein ausgebautes Nahverkehrsnetz entlastet",3,"5aad4225811b2000016f6ed1","comprehension_marker_assignment_balanced.csv",562042,FALSE,"69aca37e417992637b6ed8da",9271,"Wie stark hast du den Eindruck, dass die Sprecherin möchte, dass du ihre Empfehlung befolgst?","häufiger auf öffentliche Verkehrsmittel umsteigen",9271,1772951146885,71,0.368676457204806,2,0,0.5,0.78,0.57,0.7795625,0.569890625,"Prag. Controversy: high
Goal: high"
"3614",FALSE,"8","","deutsch","critical","low",40,68,TRUE,"die regionale Wirtschaft nachhaltig.","69ad1661eeb2031de8f1417d","Dein/e Gesprächspartner/in spricht mit dir über Einkaufsgewohnheiten. In eurem gemeinsamen Umfeld teilen die meisten die Überzeugung, dass der Einkauf bei lokalen Händlern die regionale Wirtschaft nachhaltig stärkt.",1772951708927,68,"soviel ich weiß","critical-8-c0-list1",37,"low","Wie wahrscheinlich ist es, dass du die empfohlene Handlung dann auch tatsächlich umsetzt?","low",5,1,0,5,"8","Bachelor",100,"lokalkauf",1,"low",40,"Der Einkauf bei lokalen Händlern stärkt",0,"5aad4225811b2000016f6ed1","comprehension_marker_assignment_balanced.csv",562042,FALSE,"69aca37e417992637b6ed8da",10588,"Wie stark hast du den Eindruck, dass die Sprecherin möchte, dass du ihre Empfehlung befolgst?","öfter bei lokalen Geschäften einkaufen",10588,1772951146885,58,1.56687494312043,1,-1,-0.5,0.68,0.4,0.67971875,0.40015625,"Prag. Controversy: low
Goal: low"
"3614",FALSE,"4","","deutsch","critical","low",70,70,TRUE,"in der heutigen Arbeitswelt unverzichtbar.","69ad1661eeb2031de8f1417d","Dein/e Gesprächspartner/in spricht mit dir über Berufsausbildung und Weiterbildung. In eurem gemeinsamen Umfeld teilen die meisten die Ansicht, dass digitale Kompetenzen in der heutigen Arbeitswelt unverzichtbar sind.",1772951708927,70,"ja","critical-4-c0-list1",37,"low","Wie wahrscheinlich ist es, dass du die empfohlene Handlung dann auch tatsächlich umsetzt?","low",7,1,0,7,"4","Bachelor",100,"digitalisierung",1,"low",70,"Digitale Kompetenzen sind",0,"5aad4225811b2000016f6ed1","comprehension_marker_assignment_balanced.csv",562042,FALSE,"69aca37e417992637b6ed8da",9483,"Wie stark hast du den Eindruck, dass die Sprecherin möchte, dass du ihre Empfehlung befolgst?","regelmäßig digitale Weiterbildungsangebote nutzen",9484,1772951146885,85,-0.921691143012016,2,0,-0.5,0.7,0.7,0.6996875,0.6996875,"Prag. Controversy: low
Goal: low"
"3614",FALSE,"7","","deutsch","critical","high",79,63,TRUE,"das Risiko für Herz-Kreislauf-Erkrankungen deutlich.","69ad1661eeb2031de8f1417d","Dein/e Gesprächspartner/in spricht mit dir über gesunden Lebensstil. In eurem gemeinsamen Umfeld gehen die Meinungen dazu stark auseinander.",1772951708927,63,"bekanntlich","critical-7-c3-list1",37,"high","Wie wahrscheinlich ist es, dass du die empfohlene Handlung dann auch tatsächlich umsetzt?","high",8,1,0,8,"7","Bachelor",100,"sport",1,"high",79,"Regelmäßige körperliche Bewegung senkt",3,"5aad4225811b2000016f6ed1","comprehension_marker_assignment_balanced.csv",562042,FALSE,"69aca37e417992637b6ed8da",7007,"Wie stark hast du den Eindruck, dass die Sprecherin möchte, dass du ihre Empfehlung befolgst?","regelmäßig Sport in deinen Alltag integrieren",7007,1772951146885,83,-0.737352914409613,3,1,0.5,0.63,0.79,0.629796875,0.789546875,"Prag. Controversy: high
Goal: high"
"3614",FALSE,"6","","deutsch","critical","high",92,68,TRUE,"den Meeresökosystemen erheblich.","69ad1661eeb2031de8f1417d","Dein/e Gesprächspartner/in spricht mit dir über Umweltschutz. In eurem gemeinsamen Umfeld herrschen dazu sehr unterschiedliche Meinungen.",1772951708927,68,"ja","critical-6-c2-list1",37,"low","Wie wahrscheinlich ist es, dass du die empfohlene Handlung dann auch tatsächlich umsetzt?","high",11,1,0,11,"6","Bachelor",100,"plastik",1,"low",92,"Einwegplastik schadet",2,"5aad4225811b2000016f6ed1","comprehension_marker_assignment_balanced.csv",562042,FALSE,"69aca37e417992637b6ed8da",5202,"Wie stark hast du den Eindruck, dass die Sprecherin möchte, dass du ihre Empfehlung befolgst?","konsequent auf Einwegplastik verzichten",5202,1772951146885,79,-0.368676457204806,2,0,0.5,0.68,0.92,0.67971875,0.91934375,"Prag. Controversy: high
Goal: low"
"3614",FALSE,"5","","deutsch","critical","low",38,70,TRUE,"entscheidend für die kognitive Leistungsfähigkeit.","69ad1661eeb2031de8f1417d","Dein/e Gesprächspartner/in spricht mit dir über Gesundheit und Wohlbefinden. In eurem gemeinsamen Umfeld teilen die meisten die Ansicht, dass ausreichend Schlaf entscheidend für die kognitive Leistungsfähigkeit ist.",1772951708927,70,"bekanntlich","critical-5-c1-list1",37,"high","Wie wahrscheinlich ist es, dass du die empfohlene Handlung dann auch tatsächlich umsetzt?","low",14,1,0,14,"5","Bachelor",100,"schlaf",1,"high",38,"Ausreichend Schlaf ist",1,"5aad4225811b2000016f6ed1","comprehension_marker_assignment_balanced.csv",562042,FALSE,"69aca37e417992637b6ed8da",8219,"Wie stark hast du den Eindruck, dass die Sprecherin möchte, dass du ihre Empfehlung befolgst?","auf feste Schlafzeiten achten",8219,1772951146885,74,0.0921691143012016,3,1,-0.5,0.7,0.38,0.6996875,0.3801875,"Prag. Controversy: low
Goal: high"
"3614",FALSE,"2","","deutsch","critical","high",71,61,TRUE,"die Gesundheit.","69ad1661eeb2031de8f1417d","Dein/e Gesprächspartner/in spricht mit dir über Ernährungsgewohnheiten. In eurem gemeinsamen Umfeld herrschen dazu sehr unterschiedliche Meinungen.",1772951708927,61,"soviel ich weiß","critical-2-c2-list1",37,"low","Wie wahrscheinlich ist es, dass du die empfohlene Handlung dann auch tatsächlich umsetzt?","high",15,1,0,15,"2","Bachelor",100,"ernaehrung",1,"low",71,"Eine überwiegend pflanzliche Ernährung fördert",2,"5aad4225811b2000016f6ed1","comprehension_marker_assignment_balanced.csv",562042,FALSE,"69aca37e417992637b6ed8da",5814,"Wie stark hast du den Eindruck, dass die Sprecherin möchte, dass du ihre Empfehlung befolgst?","mehr pflanzliche Lebensmittel in deinen Alltag einbauen",5814,1772951146885,62,1.19819848591562,1,-1,0.5,0.61,0.71,0.609828125,0.709671875,"Prag. Controversy: high
Goal: low"
"3615",FALSE,"4","","Deutsch","critical","high",6,31,TRUE,"in der heutigen Arbeitswelt unverzichtbar.","69ad1c9822757a38f83237e8","Dein/e Gesprächspartner/in spricht mit dir über Berufsausbildung und Weiterbildung. In eurem gemeinsamen Umfeld gehen die Meinungen dazu stark auseinander.",1772953208784,31,"bekanntlich","critical-4-c3-list0",37,"high","Wie wahrscheinlich ist es, dass du die empfohlene Handlung dann auch tatsächlich umsetzt?","high",2,1,0,2,"4","kein Abitur",100,"digitalisierung",0,"high",6,"Digitale Kompetenzen sind",3,"6914e3b13ffce0a5afff20d3","comprehension_marker_assignment_balanced.csv",474616,FALSE,"69aca37e417992637b6ed8da",17908,"Wie stark hast du den Eindruck, dass die Sprecherin möchte, dass du ihre Empfehlung befolgst?","regelmäßig digitale Weiterbildungsangebote nutzen",17908,1772952734168,85,-0.921691143012016,3,1,0.5,0.31,0.06,0.310296875,0.0606875,"Prag. Controversy: high
Goal: high"
"3615",FALSE,"8","","Deutsch","critical","high",36,68,TRUE,"die regionale Wirtschaft nachhaltig.","69ad1c9822757a38f83237e8","Dein/e Gesprächspartner/in spricht mit dir über Einkaufsgewohnheiten. In eurem gemeinsamen Umfeld gehen die Meinungen dazu weit auseinander.",1772953208784,68,"soviel ich weiß","critical-8-c3-list0",37,"high","Wie wahrscheinlich ist es, dass du die empfohlene Handlung dann auch tatsächlich umsetzt?","high",3,1,0,3,"8","kein Abitur",100,"lokalkauf",0,"high",36,"Der Einkauf bei lokalen Händlern stärkt",3,"6914e3b13ffce0a5afff20d3","comprehension_marker_assignment_balanced.csv",474616,FALSE,"69aca37e417992637b6ed8da",16784,"Wie stark hast du den Eindruck, dass die Sprecherin möchte, dass du ihre Empfehlung befolgst?","öfter bei lokalen Geschäften einkaufen",16784,1772952734168,58,1.56687494312043,1,-1,0.5,0.68,0.36,0.67971875,0.36021875,"Prag. Controversy: high
Goal: high"
"3615",FALSE,"7","","Deutsch","critical","high",43,70,TRUE,"das Risiko für Herz-Kreislauf-Erkrankungen deutlich.","69ad1c9822757a38f83237e8","Dein/e Gesprächspartner/in spricht mit dir über gesunden Lebensstil. In eurem gemeinsamen Umfeld gehen die Meinungen dazu stark auseinander.",1772953208784,70,"ja","critical-7-c2-list0",37,"low","Wie wahrscheinlich ist es, dass du die empfohlene Handlung dann auch tatsächlich umsetzt?","high",5,1,0,5,"7","kein Abitur",100,"sport",0,"low",43,"Regelmäßige körperliche Bewegung senkt",2,"6914e3b13ffce0a5afff20d3","comprehension_marker_assignment_balanced.csv",474616,FALSE,"69aca37e417992637b6ed8da",14995,"Wie stark hast du den Eindruck, dass die Sprecherin möchte, dass du ihre Empfehlung befolgst?","regelmäßig Sport in deinen Alltag integrieren",14995,1772952734168,83,-0.737352914409613,2,0,0.5,0.7,0.43,0.6996875,0.430109375,"Prag. Controversy: high
Goal: low"
"3615",FALSE,"5","","Deutsch","critical","low",81,89,TRUE,"entscheidend für die kognitive Leistungsfähigkeit.","69ad1c9822757a38f83237e8","Dein/e Gesprächspartner/in spricht mit dir über Gesundheit und Wohlbefinden. In eurem gemeinsamen Umfeld teilen die meisten die Ansicht, dass ausreichend Schlaf entscheidend für die kognitive Leistungsfähigkeit ist.",1772953208784,89,"soviel ich weiß","critical-5-c0-list0",37,"low","Wie wahrscheinlich ist es, dass du die empfohlene Handlung dann auch tatsächlich umsetzt?","low",6,1,0,6,"5","kein Abitur",100,"schlaf",0,"low",81,"Ausreichend Schlaf ist",0,"6914e3b13ffce0a5afff20d3","comprehension_marker_assignment_balanced.csv",474616,FALSE,"69aca37e417992637b6ed8da",12580,"Wie stark hast du den Eindruck, dass die Sprecherin möchte, dass du ihre Empfehlung befolgst?","auf feste Schlafzeiten achten",12580,1772952734168,74,0.0921691143012016,1,-1,-0.5,0.89,0.81,0.889390625,0.809515625,"Prag. Controversy: low
Goal: low"
"3615",FALSE,"3","","Deutsch","critical","high",38,78,TRUE,"den Stadtverkehr erheblich.","69ad1c9822757a38f83237e8","Dein/e Gesprächspartner/in spricht mit dir über Verkehrspolitik in eurer Stadt. In eurem gemeinsamen Umfeld gehen die Meinungen dazu weit auseinander.",1772953208784,78,"soviel ich weiß","critical-3-c2-list0",37,"low","Wie wahrscheinlich ist es, dass du die empfohlene Handlung dann auch tatsächlich umsetzt?","high",7,1,0,7,"3","kein Abitur",100,"stadtverkehr",0,"low",38,"Ein ausgebautes Nahverkehrsnetz entlastet",2,"6914e3b13ffce0a5afff20d3","comprehension_marker_assignment_balanced.csv",474616,FALSE,"69aca37e417992637b6ed8da",12575,"Wie stark hast du den Eindruck, dass die Sprecherin möchte, dass du ihre Empfehlung befolgst?","häufiger auf öffentliche Verkehrsmittel umsteigen",12575,1772952734168,71,0.368676457204806,1,-1,0.5,0.78,0.38,0.7795625,0.3801875,"Prag. Controversy: high
Goal: low"
"3615",FALSE,"2","","Deutsch","critical","low",22,62,TRUE,"die Gesundheit.","69ad1c9822757a38f83237e8","Dein/e Gesprächspartner/in spricht mit dir über Ernährungsgewohnheiten. In eurem gemeinsamen Umfeld teilen die meisten die Überzeugung, dass eine überwiegend pflanzliche Ernährung die Gesundheit fördert.",1772953208784,62,"bekanntlich","critical-2-c1-list0",37,"high","Wie wahrscheinlich ist es, dass du die empfohlene Handlung dann auch tatsächlich umsetzt?","low",14,1,0,14,"2","kein Abitur",100,"ernaehrung",0,"high",22,"Eine überwiegend pflanzliche Ernährung fördert",1,"6914e3b13ffce0a5afff20d3","comprehension_marker_assignment_balanced.csv",474616,FALSE,"69aca37e417992637b6ed8da",14630,"Wie stark hast du den Eindruck, dass die Sprecherin möchte, dass du ihre Empfehlung befolgst?","mehr pflanzliche Lebensmittel in deinen Alltag einbauen",14630,1772952734168,62,1.19819848591562,3,1,-0.5,0.62,0.22,0.6198125,0.2204375,"Prag. Controversy: low
Goal: high"
"3615",FALSE,"6","","Deutsch","critical","low",60,70,TRUE,"den Meeresökosystemen erheblich.","69ad1c9822757a38f83237e8","Dein/e Gesprächspartner/in spricht mit dir über Umweltschutz. In eurem gemeinsamen Umfeld teilen die meisten die Überzeugung, dass Einwegplastik den Meeresökosystemen erheblich schadet.",1772953208784,70,"bekanntlich","critical-6-c1-list0",37,"high","Wie wahrscheinlich ist es, dass du die empfohlene Handlung dann auch tatsächlich umsetzt?","low",15,1,0,15,"6","kein Abitur",100,"plastik",0,"high",60,"Einwegplastik schadet",1,"6914e3b13ffce0a5afff20d3","comprehension_marker_assignment_balanced.csv",474616,FALSE,"69aca37e417992637b6ed8da",15021,"Wie stark hast du den Eindruck, dass die Sprecherin möchte, dass du ihre Empfehlung befolgst?","konsequent auf Einwegplastik verzichten",15021,1772952734168,79,-0.368676457204806,3,1,-0.5,0.7,0.6,0.6996875,0.59984375,"Prag. Controversy: low
Goal: high"
"3615",FALSE,"1","","Deutsch","critical","low",70,73,TRUE,"durch menschliche Aktivitäten verursacht.","69ad1c9822757a38f83237e8","Dein/e Gesprächspartner/in spricht mit dir über den Klimawandel. In eurem gemeinsamen Umfeld teilen die meisten die Ansicht, dass der Klimawandel durch menschliche Aktivitäten verursacht wird.",1772953208784,73,"ja","critical-1-c0-list0",37,"low","Wie wahrscheinlich ist es, dass du die empfohlene Handlung dann auch tatsächlich umsetzt?","low",16,1,0,16,"1","kein Abitur",100,"klimawandel",0,"low",70,"Der Klimawandel wird",0,"6914e3b13ffce0a5afff20d3","comprehension_marker_assignment_balanced.csv",474616,FALSE,"69aca37e417992637b6ed8da",14364,"Wie stark hast du den Eindruck, dass die Sprecherin möchte, dass du ihre Empfehlung befolgst?","auf Flugreisen verzichten",14364,1772952734168,88,-1.19819848591562,2,0,-0.5,0.73,0.7,0.729640625,0.6996875,"Prag. Controversy: low
Goal: low"
"3616",FALSE,"6","","Deutsch","critical","high",55,74,TRUE,"den Meeresökosystemen erheblich.","69ad1e765212102f998b7602","Dein/e Gesprächspartner/in spricht mit dir über Umweltschutz. In eurem gemeinsamen Umfeld herrschen dazu sehr unterschiedliche Meinungen.",1772953556166,74,"ja","critical-6-c3-list2",48,"high","Wie wahrscheinlich ist es, dass du die empfohlene Handlung dann auch tatsächlich umsetzt?","high",2,1,0,2,"6","Bachelor",100,"plastik",2,"high",55,"Einwegplastik schadet",3,"603f47e39649cf0339527014","comprehension_marker_assignment_balanced.csv",340423,FALSE,"69aca37e417992637b6ed8da",7951,"Wie stark hast du den Eindruck, dass die Sprecherin möchte, dass du ihre Empfehlung befolgst?","konsequent auf Einwegplastik verzichten",7951,1772953215743,79,-0.368676457204806,2,0,0.5,0.74,0.55,0.739625,0.549921875,"Prag. Controversy: high
Goal: high"
"3616",FALSE,"2","","Deutsch","critical","high",31,53,TRUE,"die Gesundheit.","69ad1e765212102f998b7602","Dein/e Gesprächspartner/in spricht mit dir über Ernährungsgewohnheiten. In eurem gemeinsamen Umfeld herrschen dazu sehr unterschiedliche Meinungen.",1772953556166,53,"soviel ich weiß","critical-2-c3-list2",48,"high","Wie wahrscheinlich ist es, dass du die empfohlene Handlung dann auch tatsächlich umsetzt?","high",3,1,0,3,"2","Bachelor",100,"ernaehrung",2,"high",31,"Eine überwiegend pflanzliche Ernährung fördert",3,"603f47e39649cf0339527014","comprehension_marker_assignment_balanced.csv",340423,FALSE,"69aca37e417992637b6ed8da",9886,"Wie stark hast du den Eindruck, dass die Sprecherin möchte, dass du ihre Empfehlung befolgst?","mehr pflanzliche Lebensmittel in deinen Alltag einbauen",9886,1772953215743,62,1.19819848591562,1,-1,0.5,0.53,0.31,0.529953125,0.310296875,"Prag. Controversy: high
Goal: high"
"3616",FALSE,"7","","Deutsch","critical","low",56,75,TRUE,"das Risiko für Herz-Kreislauf-Erkrankungen deutlich.","69ad1e765212102f998b7602","Dein/e Gesprächspartner/in spricht mit dir über gesunden Lebensstil. In eurem gemeinsamen Umfeld teilen die meisten die Ansicht, dass regelmäßige körperliche Bewegung das Risiko für Herz-Kreislauf-Erkrankungen deutlich senkt.",1772953556166,75,"ja","critical-7-c0-list2",48,"low","Wie wahrscheinlich ist es, dass du die empfohlene Handlung dann auch tatsächlich umsetzt?","low",5,1,0,5,"7","Bachelor",100,"sport",2,"low",56,"Regelmäßige körperliche Bewegung senkt",0,"603f47e39649cf0339527014","comprehension_marker_assignment_balanced.csv",340423,FALSE,"69aca37e417992637b6ed8da",16155,"Wie stark hast du den Eindruck, dass die Sprecherin möchte, dass du ihre Empfehlung befolgst?","regelmäßig Sport in deinen Alltag integrieren",16155,1772953215743,83,-0.737352914409613,2,0,-0.5,0.75,0.56,0.749609375,0.55990625,"Prag. Controversy: low
Goal: low"
"3616",FALSE,"4","","Deutsch","critical","low",38,70,TRUE,"in der heutigen Arbeitswelt unverzichtbar.","69ad1e765212102f998b7602","Dein/e Gesprächspartner/in spricht mit dir über Berufsausbildung und Weiterbildung. In eurem gemeinsamen Umfeld teilen die meisten die Ansicht, dass digitale Kompetenzen in der heutigen Arbeitswelt unverzichtbar sind.",1772953556166,70,"bekanntlich","critical-4-c1-list2",48,"high","Wie wahrscheinlich ist es, dass du die empfohlene Handlung dann auch tatsächlich umsetzt?","low",6,1,0,6,"4","Bachelor",100,"digitalisierung",2,"high",38,"Digitale Kompetenzen sind",1,"603f47e39649cf0339527014","comprehension_marker_assignment_balanced.csv",340423,FALSE,"69aca37e417992637b6ed8da",20654,"Wie stark hast du den Eindruck, dass die Sprecherin möchte, dass du ihre Empfehlung befolgst?","regelmäßig digitale Weiterbildungsangebote nutzen",20655,1772953215743,85,-0.921691143012016,3,1,-0.5,0.7,0.38,0.6996875,0.3801875,"Prag. Controversy: low
Goal: high"
"3616",FALSE,"3","","Deutsch","critical","low",61,84,TRUE,"den Stadtverkehr erheblich.","69ad1e765212102f998b7602","Dein/e Gesprächspartner/in spricht mit dir über Verkehrspolitik in eurer Stadt. In eurem gemeinsamen Umfeld sehen das die meisten ähnlich, dass ein ausgebautes Nahverkehrsnetz den Stadtverkehr erheblich entlastet.",1772953556166,84,"soviel ich weiß","critical-3-c0-list2",48,"low","Wie wahrscheinlich ist es, dass du die empfohlene Handlung dann auch tatsächlich umsetzt?","low",8,1,0,8,"3","Bachelor",100,"stadtverkehr",2,"low",61,"Ein ausgebautes Nahverkehrsnetz entlastet",0,"603f47e39649cf0339527014","comprehension_marker_assignment_balanced.csv",340423,FALSE,"69aca37e417992637b6ed8da",78601,"Wie stark hast du den Eindruck, dass die Sprecherin möchte, dass du ihre Empfehlung befolgst?","häufiger auf öffentliche Verkehrsmittel umsteigen",78601,1772953215743,71,0.368676457204806,1,-1,-0.5,0.84,0.61,0.83946875,0.609828125,"Prag. Controversy: low
Goal: low"
"3616",FALSE,"1","","Deutsch","critical","high",55,88,TRUE,"durch menschliche Aktivitäten verursacht.","69ad1e765212102f998b7602","Dein/e Gesprächspartner/in spricht mit dir über den Klimawandel. In eurem gemeinsamen Umfeld gehen die Meinungen dazu allerdings stark auseinander.",1772953556166,88,"ja","critical-1-c2-list2",48,"low","Wie wahrscheinlich ist es, dass du die empfohlene Handlung dann auch tatsächlich umsetzt?","high",11,1,0,11,"1","Bachelor",100,"klimawandel",2,"low",55,"Der Klimawandel wird",2,"603f47e39649cf0339527014","comprehension_marker_assignment_balanced.csv",340423,FALSE,"69aca37e417992637b6ed8da",32716,"Wie stark hast du den Eindruck, dass die Sprecherin möchte, dass du ihre Empfehlung befolgst?","auf Flugreisen verzichten",32716,1772953215743,88,-1.19819848591562,2,0,0.5,0.88,0.55,0.87940625,0.549921875,"Prag. Controversy: high
Goal: low"
"3616",FALSE,"8","","Deutsch","critical","low",58,80,TRUE,"die regionale Wirtschaft nachhaltig.","69ad1e765212102f998b7602","Dein/e Gesprächspartner/in spricht mit dir über Einkaufsgewohnheiten. In eurem gemeinsamen Umfeld teilen die meisten die Überzeugung, dass der Einkauf bei lokalen Händlern die regionale Wirtschaft nachhaltig stärkt.",1772953556166,80,"bekanntlich","critical-8-c1-list2",48,"high","Wie wahrscheinlich ist es, dass du die empfohlene Handlung dann auch tatsächlich umsetzt?","low",14,1,0,14,"8","Bachelor",100,"lokalkauf",2,"high",58,"Der Einkauf bei lokalen Händlern stärkt",1,"603f47e39649cf0339527014","comprehension_marker_assignment_balanced.csv",340423,FALSE,"69aca37e417992637b6ed8da",8686,"Wie stark hast du den Eindruck, dass die Sprecherin möchte, dass du ihre Empfehlung befolgst?","öfter bei lokalen Geschäften einkaufen",8686,1772953215743,58,1.56687494312043,3,1,-0.5,0.8,0.58,0.79953125,0.579875,"Prag. Controversy: low
Goal: high"
"3616",FALSE,"5","","Deutsch","critical","high",23,88,TRUE,"entscheidend für die kognitive Leistungsfähigkeit.","69ad1e765212102f998b7602","Dein/e Gesprächspartner/in spricht mit dir über Gesundheit und Wohlbefinden. In eurem gemeinsamen Umfeld gehen die Meinungen dazu stark auseinander.",1772953556166,88,"ja","critical-5-c2-list2",48,"low","Wie wahrscheinlich ist es, dass du die empfohlene Handlung dann auch tatsächlich umsetzt?","high",15,1,0,15,"5","Bachelor",100,"schlaf",2,"low",23,"Ausreichend Schlaf ist",2,"603f47e39649cf0339527014","comprehension_marker_assignment_balanced.csv",340423,FALSE,"69aca37e417992637b6ed8da",11550,"Wie stark hast du den Eindruck, dass die Sprecherin möchte, dass du ihre Empfehlung befolgst?","auf feste Schlafzeiten achten",11550,1772953215743,74,0.0921691143012016,2,0,0.5,0.88,0.23,0.87940625,0.230421875,"Prag. Controversy: high
Goal: low"
"3617",FALSE,"4","","deutsch","critical","high",53,62,TRUE,"in der heutigen Arbeitswelt unverzichtbar.","69ad1ecaa6303e759c18ab5a","Dein/e Gesprächspartner/in spricht mit dir über Berufsausbildung und Weiterbildung. In eurem gemeinsamen Umfeld gehen die Meinungen dazu stark auseinander.",1772953737665,62,"bekanntlich","critical-4-c3-list0",41,"high","Wie wahrscheinlich ist es, dass du die empfohlene Handlung dann auch tatsächlich umsetzt?","high",2,1,0,2,"4","Abitur",100,"digitalisierung",0,"high",53,"Digitale Kompetenzen sind",3,"69312ba1d943a5826b2cbcaf","comprehension_marker_assignment_balanced.csv",401493,FALSE,"69aca37e417992637b6ed8da",26675,"Wie stark hast du den Eindruck, dass die Sprecherin möchte, dass du ihre Empfehlung befolgst?","regelmäßig digitale Weiterbildungsangebote nutzen",26674,1772953336172,85,-0.921691143012016,3,1,0.5,0.62,0.53,0.6198125,0.529953125,"Prag. Controversy: high
Goal: high"
"3617",FALSE,"2","","deutsch","critical","low",57,81,TRUE,"die Gesundheit.","69ad1ecaa6303e759c18ab5a","Dein/e Gesprächspartner/in spricht mit dir über Ernährungsgewohnheiten. In eurem gemeinsamen Umfeld teilen die meisten die Überzeugung, dass eine überwiegend pflanzliche Ernährung die Gesundheit fördert.",1772953737665,81,"bekanntlich","critical-2-c1-list0",41,"high","Wie wahrscheinlich ist es, dass du die empfohlene Handlung dann auch tatsächlich umsetzt?","low",5,1,0,5,"2","Abitur",100,"ernaehrung",0,"high",57,"Eine überwiegend pflanzliche Ernährung fördert",1,"69312ba1d943a5826b2cbcaf","comprehension_marker_assignment_balanced.csv",401493,FALSE,"69aca37e417992637b6ed8da",29984,"Wie stark hast du den Eindruck, dass die Sprecherin möchte, dass du ihre Empfehlung befolgst?","mehr pflanzliche Lebensmittel in deinen Alltag einbauen",29985,1772953336172,62,1.19819848591562,3,1,-0.5,0.81,0.57,0.809515625,0.569890625,"Prag. Controversy: low
Goal: high"
"3617",FALSE,"5","","deutsch","critical","low",40,57,TRUE,"entscheidend für die kognitive Leistungsfähigkeit.","69ad1ecaa6303e759c18ab5a","Dein/e Gesprächspartner/in spricht mit dir über Gesundheit und Wohlbefinden. In eurem gemeinsamen Umfeld teilen die meisten die Ansicht, dass ausreichend Schlaf entscheidend für die kognitive Leistungsfähigkeit ist.",1772953737665,57,"soviel ich weiß","critical-5-c0-list0",41,"low","Wie wahrscheinlich ist es, dass du die empfohlene Handlung dann auch tatsächlich umsetzt?","low",7,1,0,7,"5","Abitur",100,"schlaf",0,"low",40,"Ausreichend Schlaf ist",0,"69312ba1d943a5826b2cbcaf","comprehension_marker_assignment_balanced.csv",401493,FALSE,"69aca37e417992637b6ed8da",22188,"Wie stark hast du den Eindruck, dass die Sprecherin möchte, dass du ihre Empfehlung befolgst?","auf feste Schlafzeiten achten",22188,1772953336172,74,0.0921691143012016,1,-1,-0.5,0.57,0.4,0.569890625,0.40015625,"Prag. Controversy: low
Goal: low"
"3617",FALSE,"7","","deutsch","critical","high",57,67,TRUE,"das Risiko für Herz-Kreislauf-Erkrankungen deutlich.","69ad1ecaa6303e759c18ab5a","Dein/e Gesprächspartner/in spricht mit dir über gesunden Lebensstil. In eurem gemeinsamen Umfeld gehen die Meinungen dazu stark auseinander.",1772953737665,67,"ja","critical-7-c2-list0",41,"low","Wie wahrscheinlich ist es, dass du die empfohlene Handlung dann auch tatsächlich umsetzt?","high",8,1,0,8,"7","Abitur",100,"sport",0,"low",57,"Regelmäßige körperliche Bewegung senkt",2,"69312ba1d943a5826b2cbcaf","comprehension_marker_assignment_balanced.csv",401493,FALSE,"69aca37e417992637b6ed8da",23316,"Wie stark hast du den Eindruck, dass die Sprecherin möchte, dass du ihre Empfehlung befolgst?","regelmäßig Sport in deinen Alltag integrieren",23316,1772953336172,83,-0.737352914409613,2,0,0.5,0.67,0.57,0.669734375,0.569890625,"Prag. Controversy: high
Goal: low"
"3617",FALSE,"1","","deutsch","critical","low",27,54,TRUE,"durch menschliche Aktivitäten verursacht.","69ad1ecaa6303e759c18ab5a","Dein/e Gesprächspartner/in spricht mit dir über den Klimawandel. In eurem gemeinsamen Umfeld teilen die meisten die Ansicht, dass der Klimawandel durch menschliche Aktivitäten verursacht wird.",1772953737665,54,"ja","critical-1-c0-list0",41,"low","Wie wahrscheinlich ist es, dass du die empfohlene Handlung dann auch tatsächlich umsetzt?","low",12,1,0,12,"1","Abitur",100,"klimawandel",0,"low",27,"Der Klimawandel wird",0,"69312ba1d943a5826b2cbcaf","comprehension_marker_assignment_balanced.csv",401493,FALSE,"69aca37e417992637b6ed8da",20971,"Wie stark hast du den Eindruck, dass die Sprecherin möchte, dass du ihre Empfehlung befolgst?","auf Flugreisen verzichten",20971,1772953336172,88,-1.19819848591562,2,0,-0.5,0.54,0.27,0.5399375,0.270359375,"Prag. Controversy: low
Goal: low"
"3617",FALSE,"8","","deutsch","critical","high",75,65,TRUE,"die regionale Wirtschaft nachhaltig.","69ad1ecaa6303e759c18ab5a","Dein/e Gesprächspartner/in spricht mit dir über Einkaufsgewohnheiten. In eurem gemeinsamen Umfeld gehen die Meinungen dazu weit auseinander.",1772953737665,65,"soviel ich weiß","critical-8-c3-list0",41,"high","Wie wahrscheinlich ist es, dass du die empfohlene Handlung dann auch tatsächlich umsetzt?","high",13,1,0,13,"8","Abitur",100,"lokalkauf",0,"high",75,"Der Einkauf bei lokalen Händlern stärkt",3,"69312ba1d943a5826b2cbcaf","comprehension_marker_assignment_balanced.csv",401493,FALSE,"69aca37e417992637b6ed8da",21519,"Wie stark hast du den Eindruck, dass die Sprecherin möchte, dass du ihre Empfehlung befolgst?","öfter bei lokalen Geschäften einkaufen",21519,1772953336172,58,1.56687494312043,1,-1,0.5,0.65,0.75,0.649765625,0.749609375,"Prag. Controversy: high
Goal: high"
"3617",FALSE,"6","","deutsch","critical","low",29,63,TRUE,"den Meeresökosystemen erheblich.","69ad1ecaa6303e759c18ab5a","Dein/e Gesprächspartner/in spricht mit dir über Umweltschutz. In eurem gemeinsamen Umfeld teilen die meisten die Überzeugung, dass Einwegplastik den Meeresökosystemen erheblich schadet.",1772953737665,63,"bekanntlich","critical-6-c1-list0",41,"high","Wie wahrscheinlich ist es, dass du die empfohlene Handlung dann auch tatsächlich umsetzt?","low",14,1,0,14,"6","Abitur",100,"plastik",0,"high",29,"Einwegplastik schadet",1,"69312ba1d943a5826b2cbcaf","comprehension_marker_assignment_balanced.csv",401493,FALSE,"69aca37e417992637b6ed8da",23418,"Wie stark hast du den Eindruck, dass die Sprecherin möchte, dass du ihre Empfehlung befolgst?","konsequent auf Einwegplastik verzichten",23418,1772953336172,79,-0.368676457204806,3,1,-0.5,0.63,0.29,0.629796875,0.290328125,"Prag. Controversy: low
Goal: high"
"3617",FALSE,"3","","deutsch","critical","high",62,56,TRUE,"den Stadtverkehr erheblich.","69ad1ecaa6303e759c18ab5a","Dein/e Gesprächspartner/in spricht mit dir über Verkehrspolitik in eurer Stadt. In eurem gemeinsamen Umfeld gehen die Meinungen dazu weit auseinander.",1772953737665,56,"soviel ich weiß","critical-3-c2-list0",41,"low","Wie wahrscheinlich ist es, dass du die empfohlene Handlung dann auch tatsächlich umsetzt?","high",15,1,0,15,"3","Abitur",100,"stadtverkehr",0,"low",62,"Ein ausgebautes Nahverkehrsnetz entlastet",2,"69312ba1d943a5826b2cbcaf","comprehension_marker_assignment_balanced.csv",401493,FALSE,"69aca37e417992637b6ed8da",23398,"Wie stark hast du den Eindruck, dass die Sprecherin möchte, dass du ihre Empfehlung befolgst?","häufiger auf öffentliche Verkehrsmittel umsteigen",23398,1772953336172,71,0.368676457204806,1,-1,0.5,0.56,0.62,0.55990625,0.6198125,"Prag. Controversy: high
Goal: low"
"3618",FALSE,"3","","Deutsch","critical","high",16,25,TRUE,"den Stadtverkehr erheblich.","69ad1f72af41456d63361631","Dein/e Gesprächspartner/in spricht mit dir über Verkehrspolitik in eurer Stadt. In eurem gemeinsamen Umfeld gehen die Meinungen dazu weit auseinander.",1772953723425,25,"soviel ich weiß","critical-3-c2-list0",30,"low","Wie wahrscheinlich ist es, dass du die empfohlene Handlung dann auch tatsächlich umsetzt?","high",1,1,0,1,"3","Bachelor",100,"stadtverkehr",0,"low",16,"Ein ausgebautes Nahverkehrsnetz entlastet",2,"5be30d2451ed78000195c6b6","comprehension_marker_assignment_balanced.csv",257923,FALSE,"69aca37e417992637b6ed8da",22943,"Wie stark hast du den Eindruck, dass die Sprecherin möchte, dass du ihre Empfehlung befolgst?","häufiger auf öffentliche Verkehrsmittel umsteigen",22943,1772953465502,71,0.368676457204806,1,-1,0.5,0.25,0.16,0.250390625,0.16053125,"Prag. Controversy: high
Goal: low"
"3618",FALSE,"7","","Deutsch","critical","high",58,87,TRUE,"das Risiko für Herz-Kreislauf-Erkrankungen deutlich.","69ad1f72af41456d63361631","Dein/e Gesprächspartner/in spricht mit dir über gesunden Lebensstil. In eurem gemeinsamen Umfeld gehen die Meinungen dazu stark auseinander.",1772953723425,87,"ja","critical-7-c2-list0",30,"low","Wie wahrscheinlich ist es, dass du die empfohlene Handlung dann auch tatsächlich umsetzt?","high",2,1,0,2,"7","Bachelor",100,"sport",0,"low",58,"Regelmäßige körperliche Bewegung senkt",2,"5be30d2451ed78000195c6b6","comprehension_marker_assignment_balanced.csv",257923,FALSE,"69aca37e417992637b6ed8da",20265,"Wie stark hast du den Eindruck, dass die Sprecherin möchte, dass du ihre Empfehlung befolgst?","regelmäßig Sport in deinen Alltag integrieren",20265,1772953465502,83,-0.737352914409613,2,0,0.5,0.87,0.58,0.869421875,0.579875,"Prag. Controversy: high
Goal: low"
"3618",FALSE,"5","","Deutsch","critical","low",84,81,TRUE,"entscheidend für die kognitive Leistungsfähigkeit.","69ad1f72af41456d63361631","Dein/e Gesprächspartner/in spricht mit dir über Gesundheit und Wohlbefinden. In eurem gemeinsamen Umfeld teilen die meisten die Ansicht, dass ausreichend Schlaf entscheidend für die kognitive Leistungsfähigkeit ist.",1772953723425,81,"soviel ich weiß","critical-5-c0-list0",30,"low","Wie wahrscheinlich ist es, dass du die empfohlene Handlung dann auch tatsächlich umsetzt?","low",3,1,0,3,"5","Bachelor",100,"schlaf",0,"low",84,"Ausreichend Schlaf ist",0,"5be30d2451ed78000195c6b6","comprehension_marker_assignment_balanced.csv",257923,FALSE,"69aca37e417992637b6ed8da",14841,"Wie stark hast du den Eindruck, dass die Sprecherin möchte, dass du ihre Empfehlung befolgst?","auf feste Schlafzeiten achten",14842,1772953465502,74,0.0921691143012016,1,-1,-0.5,0.81,0.84,0.809515625,0.83946875,"Prag. Controversy: low
Goal: low"
"3618",FALSE,"1","","Deutsch","critical","low",95,89,TRUE,"durch menschliche Aktivitäten verursacht.","69ad1f72af41456d63361631","Dein/e Gesprächspartner/in spricht mit dir über den Klimawandel. In eurem gemeinsamen Umfeld teilen die meisten die Ansicht, dass der Klimawandel durch menschliche Aktivitäten verursacht wird.",1772953723425,89,"ja","critical-1-c0-list0",30,"low","Wie wahrscheinlich ist es, dass du die empfohlene Handlung dann auch tatsächlich umsetzt?","low",4,1,0,4,"1","Bachelor",100,"klimawandel",0,"low",95,"Der Klimawandel wird",0,"5be30d2451ed78000195c6b6","comprehension_marker_assignment_balanced.csv",257923,FALSE,"69aca37e417992637b6ed8da",11223,"Wie stark hast du den Eindruck, dass die Sprecherin möchte, dass du ihre Empfehlung befolgst?","auf Flugreisen verzichten",11223,1772953465502,88,-1.19819848591562,2,0,-0.5,0.89,0.95,0.889390625,0.949296875,"Prag. Controversy: low
Goal: low"
"3618",FALSE,"4","","Deutsch","critical","high",100,100,TRUE,"in der heutigen Arbeitswelt unverzichtbar.","69ad1f72af41456d63361631","Dein/e Gesprächspartner/in spricht mit dir über Berufsausbildung und Weiterbildung. In eurem gemeinsamen Umfeld gehen die Meinungen dazu stark auseinander.",1772953723425,100,"bekanntlich","critical-4-c3-list0",30,"high","Wie wahrscheinlich ist es, dass du die empfohlene Handlung dann auch tatsächlich umsetzt?","high",5,1,0,5,"4","Bachelor",100,"digitalisierung",0,"high",100,"Digitale Kompetenzen sind",3,"5be30d2451ed78000195c6b6","comprehension_marker_assignment_balanced.csv",257923,FALSE,"69aca37e417992637b6ed8da",13036,"Wie stark hast du den Eindruck, dass die Sprecherin möchte, dass du ihre Empfehlung befolgst?","regelmäßig digitale Weiterbildungsangebote nutzen",13036,1772953465502,85,-0.921691143012016,3,1,0.5,1,1,0.99921875,0.99921875,"Prag. Controversy: high
Goal: high"
"3618",FALSE,"6","","Deutsch","critical","low",66,100,TRUE,"den Meeresökosystemen erheblich.","69ad1f72af41456d63361631","Dein/e Gesprächspartner/in spricht mit dir über Umweltschutz. In eurem gemeinsamen Umfeld teilen die meisten die Überzeugung, dass Einwegplastik den Meeresökosystemen erheblich schadet.",1772953723425,100,"bekanntlich","critical-6-c1-list0",30,"high","Wie wahrscheinlich ist es, dass du die empfohlene Handlung dann auch tatsächlich umsetzt?","low",6,1,0,6,"6","Bachelor",100,"plastik",0,"high",66,"Einwegplastik schadet",1,"5be30d2451ed78000195c6b6","comprehension_marker_assignment_balanced.csv",257923,FALSE,"69aca37e417992637b6ed8da",10663,"Wie stark hast du den Eindruck, dass die Sprecherin möchte, dass du ihre Empfehlung befolgst?","konsequent auf Einwegplastik verzichten",10663,1772953465502,79,-0.368676457204806,3,1,-0.5,1,0.66,0.99921875,0.65975,"Prag. Controversy: low
Goal: high"
"3618",FALSE,"8","","Deutsch","critical","high",23,80,TRUE,"die regionale Wirtschaft nachhaltig.","69ad1f72af41456d63361631","Dein/e Gesprächspartner/in spricht mit dir über Einkaufsgewohnheiten. In eurem gemeinsamen Umfeld gehen die Meinungen dazu weit auseinander.",1772953723425,80,"soviel ich weiß","critical-8-c3-list0",30,"high","Wie wahrscheinlich ist es, dass du die empfohlene Handlung dann auch tatsächlich umsetzt?","high",11,1,0,11,"8","Bachelor",100,"lokalkauf",0,"high",23,"Der Einkauf bei lokalen Händlern stärkt",3,"5be30d2451ed78000195c6b6","comprehension_marker_assignment_balanced.csv",257923,FALSE,"69aca37e417992637b6ed8da",15544,"Wie stark hast du den Eindruck, dass die Sprecherin möchte, dass du ihre Empfehlung befolgst?","öfter bei lokalen Geschäften einkaufen",15544,1772953465502,58,1.56687494312043,1,-1,0.5,0.8,0.23,0.79953125,0.230421875,"Prag. Controversy: high
Goal: high"
"3618",FALSE,"2","","Deutsch","critical","low",60,68,TRUE,"die Gesundheit.","69ad1f72af41456d63361631","Dein/e Gesprächspartner/in spricht mit dir über Ernährungsgewohnheiten. In eurem gemeinsamen Umfeld teilen die meisten die Überzeugung, dass eine überwiegend pflanzliche Ernährung die Gesundheit fördert.",1772953723425,68,"bekanntlich","critical-2-c1-list0",30,"high","Wie wahrscheinlich ist es, dass du die empfohlene Handlung dann auch tatsächlich umsetzt?","low",13,1,0,13,"2","Bachelor",100,"ernaehrung",0,"high",60,"Eine überwiegend pflanzliche Ernährung fördert",1,"5be30d2451ed78000195c6b6","comprehension_marker_assignment_balanced.csv",257923,FALSE,"69aca37e417992637b6ed8da",10424,"Wie stark hast du den Eindruck, dass die Sprecherin möchte, dass du ihre Empfehlung befolgst?","mehr pflanzliche Lebensmittel in deinen Alltag einbauen",10424,1772953465502,62,1.19819848591562,3,1,-0.5,0.68,0.6,0.67971875,0.59984375,"Prag. Controversy: low
Goal: high"
"3619",FALSE,"2","","deutsch","critical","low",56,75,TRUE,"die Gesundheit.","69ad201fe35c966959e0ee86","Dein/e Gesprächspartner/in spricht mit dir über Ernährungsgewohnheiten. In eurem gemeinsamen Umfeld teilen die meisten die Überzeugung, dass eine überwiegend pflanzliche Ernährung die Gesundheit fördert.",1772954311153,75,"bekanntlich","critical-2-c1-list0",38,"high","Wie wahrscheinlich ist es, dass du die empfohlene Handlung dann auch tatsächlich umsetzt?","low",1,1,0,1,"2","Abitur",100,"ernaehrung",0,"high",56,"Eine überwiegend pflanzliche Ernährung fördert",1,"6977a707bf9ce66df3c48f60","comprehension_marker_assignment_balanced.csv",654303,FALSE,"69aca37e417992637b6ed8da",82473,"Wie stark hast du den Eindruck, dass die Sprecherin möchte, dass du ihre Empfehlung befolgst?","mehr pflanzliche Lebensmittel in deinen Alltag einbauen",82473,1772953656850,62,1.19819848591562,3,1,-0.5,0.75,0.56,0.749609375,0.55990625,"Prag. Controversy: low
Goal: high"
"3619",FALSE,"4","","deutsch","critical","high",54,59,TRUE,"in der heutigen Arbeitswelt unverzichtbar.","69ad201fe35c966959e0ee86","Dein/e Gesprächspartner/in spricht mit dir über Berufsausbildung und Weiterbildung. In eurem gemeinsamen Umfeld gehen die Meinungen dazu stark auseinander.",1772954311153,59,"bekanntlich","critical-4-c3-list0",38,"high","Wie wahrscheinlich ist es, dass du die empfohlene Handlung dann auch tatsächlich umsetzt?","high",3,1,0,3,"4","Abitur",100,"digitalisierung",0,"high",54,"Digitale Kompetenzen sind",3,"6977a707bf9ce66df3c48f60","comprehension_marker_assignment_balanced.csv",654303,FALSE,"69aca37e417992637b6ed8da",11821,"Wie stark hast du den Eindruck, dass die Sprecherin möchte, dass du ihre Empfehlung befolgst?","regelmäßig digitale Weiterbildungsangebote nutzen",11820,1772953656850,85,-0.921691143012016,3,1,0.5,0.59,0.54,0.589859375,0.5399375,"Prag. Controversy: high
Goal: high"
"3619",FALSE,"3","","deutsch","critical","high",59,69,TRUE,"den Stadtverkehr erheblich.","69ad201fe35c966959e0ee86","Dein/e Gesprächspartner/in spricht mit dir über Verkehrspolitik in eurer Stadt. In eurem gemeinsamen Umfeld gehen die Meinungen dazu weit auseinander.",1772954311153,69,"soviel ich weiß","critical-3-c2-list0",38,"low","Wie wahrscheinlich ist es, dass du die empfohlene Handlung dann auch tatsächlich umsetzt?","high",5,1,0,5,"3","Abitur",100,"stadtverkehr",0,"low",59,"Ein ausgebautes Nahverkehrsnetz entlastet",2,"6977a707bf9ce66df3c48f60","comprehension_marker_assignment_balanced.csv",654303,FALSE,"69aca37e417992637b6ed8da",30828,"Wie stark hast du den Eindruck, dass die Sprecherin möchte, dass du ihre Empfehlung befolgst?","häufiger auf öffentliche Verkehrsmittel umsteigen",30828,1772953656850,71,0.368676457204806,1,-1,0.5,0.69,0.59,0.689703125,0.589859375,"Prag. Controversy: high
Goal: low"
"3619",FALSE,"8","","deutsch","critical","high",76,39,TRUE,"die regionale Wirtschaft nachhaltig.","69ad201fe35c966959e0ee86","Dein/e Gesprächspartner/in spricht mit dir über Einkaufsgewohnheiten. In eurem gemeinsamen Umfeld gehen die Meinungen dazu weit auseinander.",1772954311153,39,"soviel ich weiß","critical-8-c3-list0",38,"high","Wie wahrscheinlich ist es, dass du die empfohlene Handlung dann auch tatsächlich umsetzt?","high",6,1,0,6,"8","Abitur",100,"lokalkauf",0,"high",76,"Der Einkauf bei lokalen Händlern stärkt",3,"6977a707bf9ce66df3c48f60","comprehension_marker_assignment_balanced.csv",654303,FALSE,"69aca37e417992637b6ed8da",6966,"Wie stark hast du den Eindruck, dass die Sprecherin möchte, dass du ihre Empfehlung befolgst?","öfter bei lokalen Geschäften einkaufen",6966,1772953656850,58,1.56687494312043,1,-1,0.5,0.39,0.76,0.390171875,0.75959375,"Prag. Controversy: high
Goal: high"
"3619",FALSE,"7","","deutsch","critical","high",27,28,TRUE,"das Risiko für Herz-Kreislauf-Erkrankungen deutlich.","69ad201fe35c966959e0ee86","Dein/e Gesprächspartner/in spricht mit dir über gesunden Lebensstil. In eurem gemeinsamen Umfeld gehen die Meinungen dazu stark auseinander.",1772954311153,28,"ja","critical-7-c2-list0",38,"low","Wie wahrscheinlich ist es, dass du die empfohlene Handlung dann auch tatsächlich umsetzt?","high",10,1,0,10,"7","Abitur",100,"sport",0,"low",27,"Regelmäßige körperliche Bewegung senkt",2,"6977a707bf9ce66df3c48f60","comprehension_marker_assignment_balanced.csv",654303,FALSE,"69aca37e417992637b6ed8da",162571,"Wie stark hast du den Eindruck, dass die Sprecherin möchte, dass du ihre Empfehlung befolgst?","regelmäßig Sport in deinen Alltag integrieren",162571,1772953656850,83,-0.737352914409613,2,0,0.5,0.28,0.27,0.28034375,0.270359375,"Prag. Controversy: high
Goal: low"
"3619",FALSE,"5","","deutsch","critical","low",40,36,TRUE,"entscheidend für die kognitive Leistungsfähigkeit.","69ad201fe35c966959e0ee86","Dein/e Gesprächspartner/in spricht mit dir über Gesundheit und Wohlbefinden. In eurem gemeinsamen Umfeld teilen die meisten die Ansicht, dass ausreichend Schlaf entscheidend für die kognitive Leistungsfähigkeit ist.",1772954311153,36,"soviel ich weiß","critical-5-c0-list0",38,"low","Wie wahrscheinlich ist es, dass du die empfohlene Handlung dann auch tatsächlich umsetzt?","low",11,1,0,11,"5","Abitur",100,"schlaf",0,"low",40,"Ausreichend Schlaf ist",0,"6977a707bf9ce66df3c48f60","comprehension_marker_assignment_balanced.csv",654303,FALSE,"69aca37e417992637b6ed8da",2983,"Wie stark hast du den Eindruck, dass die Sprecherin möchte, dass du ihre Empfehlung befolgst?","auf feste Schlafzeiten achten",2983,1772953656850,74,0.0921691143012016,1,-1,-0.5,0.36,0.4,0.36021875,0.40015625,"Prag. Controversy: low
Goal: low"
"3619",FALSE,"1","","deutsch","critical","low",44,40,TRUE,"durch menschliche Aktivitäten verursacht.","69ad201fe35c966959e0ee86","Dein/e Gesprächspartner/in spricht mit dir über den Klimawandel. In eurem gemeinsamen Umfeld teilen die meisten die Ansicht, dass der Klimawandel durch menschliche Aktivitäten verursacht wird.",1772954311153,40,"ja","critical-1-c0-list0",38,"low","Wie wahrscheinlich ist es, dass du die empfohlene Handlung dann auch tatsächlich umsetzt?","low",13,1,0,13,"1","Abitur",100,"klimawandel",0,"low",44,"Der Klimawandel wird",0,"6977a707bf9ce66df3c48f60","comprehension_marker_assignment_balanced.csv",654303,FALSE,"69aca37e417992637b6ed8da",9706,"Wie stark hast du den Eindruck, dass die Sprecherin möchte, dass du ihre Empfehlung befolgst?","auf Flugreisen verzichten",9706,1772953656850,88,-1.19819848591562,2,0,-0.5,0.4,0.44,0.40015625,0.44009375,"Prag. Controversy: low
Goal: low"
"3619",FALSE,"6","","deutsch","critical","low",69,78,TRUE,"den Meeresökosystemen erheblich.","69ad201fe35c966959e0ee86","Dein/e Gesprächspartner/in spricht mit dir über Umweltschutz. In eurem gemeinsamen Umfeld teilen die meisten die Überzeugung, dass Einwegplastik den Meeresökosystemen erheblich schadet.",1772954311153,78,"bekanntlich","critical-6-c1-list0",38,"high","Wie wahrscheinlich ist es, dass du die empfohlene Handlung dann auch tatsächlich umsetzt?","low",16,1,0,16,"6","Abitur",100,"plastik",0,"high",69,"Einwegplastik schadet",1,"6977a707bf9ce66df3c48f60","comprehension_marker_assignment_balanced.csv",654303,FALSE,"69aca37e417992637b6ed8da",116379,"Wie stark hast du den Eindruck, dass die Sprecherin möchte, dass du ihre Empfehlung befolgst?","konsequent auf Einwegplastik verzichten",116379,1772953656850,79,-0.368676457204806,3,1,-0.5,0.78,0.69,0.7795625,0.689703125,"Prag. Controversy: low
Goal: high"
"3620",FALSE,"4","","Deutsch","critical","low",60,68,TRUE,"in der heutigen Arbeitswelt unverzichtbar.","69ad230883bd9df5340559f5","Dein/e Gesprächspartner/in spricht mit dir über Berufsausbildung und Weiterbildung. In eurem gemeinsamen Umfeld teilen die meisten die Ansicht, dass digitale Kompetenzen in der heutigen Arbeitswelt unverzichtbar sind.",1772954615115,68,"ja","critical-4-c0-list1",31,"low","Wie wahrscheinlich ist es, dass du die empfohlene Handlung dann auch tatsächlich umsetzt?","low",2,1,0,2,"4","Bachelor",100,"digitalisierung",1,"low",60,"Digitale Kompetenzen sind",0,"6978ee2c5643e1ccbb862c9f","comprehension_marker_assignment_balanced.csv",227337,FALSE,"69aca37e417992637b6ed8da",10545,"Wie stark hast du den Eindruck, dass die Sprecherin möchte, dass du ihre Empfehlung befolgst?","regelmäßig digitale Weiterbildungsangebote nutzen",10545,1772954387778,85,-0.921691143012016,2,0,-0.5,0.68,0.6,0.67971875,0.59984375,"Prag. Controversy: low
Goal: low"
"3620",FALSE,"1","","Deutsch","critical","low",43,69,TRUE,"durch menschliche Aktivitäten verursacht.","69ad230883bd9df5340559f5","Dein/e Gesprächspartner/in spricht mit dir über den Klimawandel. In eurem gemeinsamen Umfeld teilen die meisten die Ansicht, dass der Klimawandel durch menschliche Aktivitäten verursacht wird.",1772954615115,69,"bekanntlich","critical-1-c1-list1",31,"high","Wie wahrscheinlich ist es, dass du die empfohlene Handlung dann auch tatsächlich umsetzt?","low",5,1,0,5,"1","Bachelor",100,"klimawandel",1,"high",43,"Der Klimawandel wird",1,"6978ee2c5643e1ccbb862c9f","comprehension_marker_assignment_balanced.csv",227337,FALSE,"69aca37e417992637b6ed8da",8416,"Wie stark hast du den Eindruck, dass die Sprecherin möchte, dass du ihre Empfehlung befolgst?","auf Flugreisen verzichten",8416,1772954387778,88,-1.19819848591562,3,1,-0.5,0.69,0.43,0.689703125,0.430109375,"Prag. Controversy: low
Goal: high"
"3620",FALSE,"2","","Deutsch","critical","high",56,67,TRUE,"die Gesundheit.","69ad230883bd9df5340559f5","Dein/e Gesprächspartner/in spricht mit dir über Ernährungsgewohnheiten. In eurem gemeinsamen Umfeld herrschen dazu sehr unterschiedliche Meinungen.",1772954615115,67,"soviel ich weiß","critical-2-c2-list1",31,"low","Wie wahrscheinlich ist es, dass du die empfohlene Handlung dann auch tatsächlich umsetzt?","high",7,1,0,7,"2","Bachelor",100,"ernaehrung",1,"low",56,"Eine überwiegend pflanzliche Ernährung fördert",2,"6978ee2c5643e1ccbb862c9f","comprehension_marker_assignment_balanced.csv",227337,FALSE,"69aca37e417992637b6ed8da",14132,"Wie stark hast du den Eindruck, dass die Sprecherin möchte, dass du ihre Empfehlung befolgst?","mehr pflanzliche Lebensmittel in deinen Alltag einbauen",14132,1772954387778,62,1.19819848591562,1,-1,0.5,0.67,0.56,0.669734375,0.55990625,"Prag. Controversy: high
Goal: low"
"3620",FALSE,"3","","Deutsch","critical","high",56,68,TRUE,"den Stadtverkehr erheblich.","69ad230883bd9df5340559f5","Dein/e Gesprächspartner/in spricht mit dir über Verkehrspolitik in eurer Stadt. In eurem gemeinsamen Umfeld gehen die Meinungen dazu weit auseinander.",1772954615115,68,"ja","critical-3-c3-list1",31,"high","Wie wahrscheinlich ist es, dass du die empfohlene Handlung dann auch tatsächlich umsetzt?","high",8,1,0,8,"3","Bachelor",100,"stadtverkehr",1,"high",56,"Ein ausgebautes Nahverkehrsnetz entlastet",3,"6978ee2c5643e1ccbb862c9f","comprehension_marker_assignment_balanced.csv",227337,FALSE,"69aca37e417992637b6ed8da",11214,"Wie stark hast du den Eindruck, dass die Sprecherin möchte, dass du ihre Empfehlung befolgst?","häufiger auf öffentliche Verkehrsmittel umsteigen",11214,1772954387778,71,0.368676457204806,2,0,0.5,0.68,0.56,0.67971875,0.55990625,"Prag. Controversy: high
Goal: high"
"3620",FALSE,"6","","Deutsch","critical","high",39,66,TRUE,"den Meeresökosystemen erheblich.","69ad230883bd9df5340559f5","Dein/e Gesprächspartner/in spricht mit dir über Umweltschutz. In eurem gemeinsamen Umfeld herrschen dazu sehr unterschiedliche Meinungen.",1772954615115,66,"ja","critical-6-c2-list1",31,"low","Wie wahrscheinlich ist es, dass du die empfohlene Handlung dann auch tatsächlich umsetzt?","high",9,1,0,9,"6","Bachelor",100,"plastik",1,"low",39,"Einwegplastik schadet",2,"6978ee2c5643e1ccbb862c9f","comprehension_marker_assignment_balanced.csv",227337,FALSE,"69aca37e417992637b6ed8da",31669,"Wie stark hast du den Eindruck, dass die Sprecherin möchte, dass du ihre Empfehlung befolgst?","konsequent auf Einwegplastik verzichten",31669,1772954387778,79,-0.368676457204806,2,0,0.5,0.66,0.39,0.65975,0.390171875,"Prag. Controversy: high
Goal: low"
"3620",FALSE,"7","","Deutsch","critical","high",65,74,TRUE,"das Risiko für Herz-Kreislauf-Erkrankungen deutlich.","69ad230883bd9df5340559f5","Dein/e Gesprächspartner/in spricht mit dir über gesunden Lebensstil. In eurem gemeinsamen Umfeld gehen die Meinungen dazu stark auseinander.",1772954615115,74,"bekanntlich","critical-7-c3-list1",31,"high","Wie wahrscheinlich ist es, dass du die empfohlene Handlung dann auch tatsächlich umsetzt?","high",10,1,0,10,"7","Bachelor",100,"sport",1,"high",65,"Regelmäßige körperliche Bewegung senkt",3,"6978ee2c5643e1ccbb862c9f","comprehension_marker_assignment_balanced.csv",227337,FALSE,"69aca37e417992637b6ed8da",13197,"Wie stark hast du den Eindruck, dass die Sprecherin möchte, dass du ihre Empfehlung befolgst?","regelmäßig Sport in deinen Alltag integrieren",13197,1772954387778,83,-0.737352914409613,3,1,0.5,0.74,0.65,0.739625,0.649765625,"Prag. Controversy: high
Goal: high"
"3620",FALSE,"8","","Deutsch","critical","low",57,72,TRUE,"die regionale Wirtschaft nachhaltig.","69ad230883bd9df5340559f5","Dein/e Gesprächspartner/in spricht mit dir über Einkaufsgewohnheiten. In eurem gemeinsamen Umfeld teilen die meisten die Überzeugung, dass der Einkauf bei lokalen Händlern die regionale Wirtschaft nachhaltig stärkt.",1772954615115,72,"soviel ich weiß","critical-8-c0-list1",31,"low","Wie wahrscheinlich ist es, dass du die empfohlene Handlung dann auch tatsächlich umsetzt?","low",14,1,0,14,"8","Bachelor",100,"lokalkauf",1,"low",57,"Der Einkauf bei lokalen Händlern stärkt",0,"6978ee2c5643e1ccbb862c9f","comprehension_marker_assignment_balanced.csv",227337,FALSE,"69aca37e417992637b6ed8da",5249,"Wie stark hast du den Eindruck, dass die Sprecherin möchte, dass du ihre Empfehlung befolgst?","öfter bei lokalen Geschäften einkaufen",5249,1772954387778,58,1.56687494312043,1,-1,-0.5,0.72,0.57,0.71965625,0.569890625,"Prag. Controversy: low
Goal: low"
"3620",FALSE,"5","","Deutsch","critical","low",55,76,TRUE,"entscheidend für die kognitive Leistungsfähigkeit.","69ad230883bd9df5340559f5","Dein/e Gesprächspartner/in spricht mit dir über Gesundheit und Wohlbefinden. In eurem gemeinsamen Umfeld teilen die meisten die Ansicht, dass ausreichend Schlaf entscheidend für die kognitive Leistungsfähigkeit ist.",1772954615115,76,"bekanntlich","critical-5-c1-list1",31,"high","Wie wahrscheinlich ist es, dass du die empfohlene Handlung dann auch tatsächlich umsetzt?","low",16,1,0,16,"5","Bachelor",100,"schlaf",1,"high",55,"Ausreichend Schlaf ist",1,"6978ee2c5643e1ccbb862c9f","comprehension_marker_assignment_balanced.csv",227337,FALSE,"69aca37e417992637b6ed8da",15859,"Wie stark hast du den Eindruck, dass die Sprecherin möchte, dass du ihre Empfehlung befolgst?","auf feste Schlafzeiten achten",15860,1772954387778,74,0.0921691143012016,3,1,-0.5,0.76,0.55,0.75959375,0.549921875,"Prag. Controversy: low
Goal: high"
"3621",FALSE,"4","","Deutsch","critical","high",68,75,TRUE,"in der heutigen Arbeitswelt unverzichtbar.","69ad233a79e4c537e188cf04","Dein/e Gesprächspartner/in spricht mit dir über Berufsausbildung und Weiterbildung. In eurem gemeinsamen Umfeld gehen die Meinungen dazu stark auseinander.",1772954641627,75,"bekanntlich","critical-4-c3-list0",25,"high","Wie wahrscheinlich ist es, dass du die empfohlene Handlung dann auch tatsächlich umsetzt?","high",2,1,0,2,"4","Bachelor",100,"digitalisierung",0,"high",68,"Digitale Kompetenzen sind",3,"6914cff3225dd90f81a6924d","comprehension_marker_assignment_balanced.csv",208663,FALSE,"69aca37e417992637b6ed8da",13588,"Wie stark hast du den Eindruck, dass die Sprecherin möchte, dass du ihre Empfehlung befolgst?","regelmäßig digitale Weiterbildungsangebote nutzen",13588,1772954432964,85,-0.921691143012016,3,1,0.5,0.75,0.68,0.749609375,0.67971875,"Prag. Controversy: high
Goal: high"
"3621",FALSE,"5","","Deutsch","critical","low",60,54,TRUE,"entscheidend für die kognitive Leistungsfähigkeit.","69ad233a79e4c537e188cf04","Dein/e Gesprächspartner/in spricht mit dir über Gesundheit und Wohlbefinden. In eurem gemeinsamen Umfeld teilen die meisten die Ansicht, dass ausreichend Schlaf entscheidend für die kognitive Leistungsfähigkeit ist.",1772954641627,54,"soviel ich weiß","critical-5-c0-list0",25,"low","Wie wahrscheinlich ist es, dass du die empfohlene Handlung dann auch tatsächlich umsetzt?","low",4,1,0,4,"5","Bachelor",100,"schlaf",0,"low",60,"Ausreichend Schlaf ist",0,"6914cff3225dd90f81a6924d","comprehension_marker_assignment_balanced.csv",208663,FALSE,"69aca37e417992637b6ed8da",9725,"Wie stark hast du den Eindruck, dass die Sprecherin möchte, dass du ihre Empfehlung befolgst?","auf feste Schlafzeiten achten",9725,1772954432964,74,0.0921691143012016,1,-1,-0.5,0.54,0.6,0.5399375,0.59984375,"Prag. Controversy: low
Goal: low"
"3621",FALSE,"2","","Deutsch","critical","low",50,75,TRUE,"die Gesundheit.","69ad233a79e4c537e188cf04","Dein/e Gesprächspartner/in spricht mit dir über Ernährungsgewohnheiten. In eurem gemeinsamen Umfeld teilen die meisten die Überzeugung, dass eine überwiegend pflanzliche Ernährung die Gesundheit fördert.",1772954641627,75,"bekanntlich","critical-2-c1-list0",25,"high","Wie wahrscheinlich ist es, dass du die empfohlene Handlung dann auch tatsächlich umsetzt?","low",8,1,0,8,"2","Bachelor",100,"ernaehrung",0,"high",50,"Eine überwiegend pflanzliche Ernährung fördert",1,"6914cff3225dd90f81a6924d","comprehension_marker_assignment_balanced.csv",208663,FALSE,"69aca37e417992637b6ed8da",11303,"Wie stark hast du den Eindruck, dass die Sprecherin möchte, dass du ihre Empfehlung befolgst?","mehr pflanzliche Lebensmittel in deinen Alltag einbauen",11303,1772954432964,62,1.19819848591562,3,1,-0.5,0.75,0.5,0.749609375,0.5,"Prag. Controversy: low
Goal: high"
"3621",FALSE,"6","","Deutsch","critical","low",66,84,TRUE,"den Meeresökosystemen erheblich.","69ad233a79e4c537e188cf04","Dein/e Gesprächspartner/in spricht mit dir über Umweltschutz. In eurem gemeinsamen Umfeld teilen die meisten die Überzeugung, dass Einwegplastik den Meeresökosystemen erheblich schadet.",1772954641627,84,"bekanntlich","critical-6-c1-list0",25,"high","Wie wahrscheinlich ist es, dass du die empfohlene Handlung dann auch tatsächlich umsetzt?","low",9,1,0,9,"6","Bachelor",100,"plastik",0,"high",66,"Einwegplastik schadet",1,"6914cff3225dd90f81a6924d","comprehension_marker_assignment_balanced.csv",208663,FALSE,"69aca37e417992637b6ed8da",7377,"Wie stark hast du den Eindruck, dass die Sprecherin möchte, dass du ihre Empfehlung befolgst?","konsequent auf Einwegplastik verzichten",7377,1772954432964,79,-0.368676457204806,3,1,-0.5,0.84,0.66,0.83946875,0.65975,"Prag. Controversy: low
Goal: high"
"3621",FALSE,"8","","Deutsch","critical","high",94,41,TRUE,"die regionale Wirtschaft nachhaltig.","69ad233a79e4c537e188cf04","Dein/e Gesprächspartner/in spricht mit dir über Einkaufsgewohnheiten. In eurem gemeinsamen Umfeld gehen die Meinungen dazu weit auseinander.",1772954641627,41,"soviel ich weiß","critical-8-c3-list0",25,"high","Wie wahrscheinlich ist es, dass du die empfohlene Handlung dann auch tatsächlich umsetzt?","high",11,1,0,11,"8","Bachelor",100,"lokalkauf",0,"high",94,"Der Einkauf bei lokalen Händlern stärkt",3,"6914cff3225dd90f81a6924d","comprehension_marker_assignment_balanced.csv",208663,FALSE,"69aca37e417992637b6ed8da",7397,"Wie stark hast du den Eindruck, dass die Sprecherin möchte, dass du ihre Empfehlung befolgst?","öfter bei lokalen Geschäften einkaufen",7397,1772954432964,58,1.56687494312043,1,-1,0.5,0.41,0.94,0.410140625,0.9393125,"Prag. Controversy: high
Goal: high"
"3621",FALSE,"7","","Deutsch","critical","high",35,74,TRUE,"das Risiko für Herz-Kreislauf-Erkrankungen deutlich.","69ad233a79e4c537e188cf04","Dein/e Gesprächspartner/in spricht mit dir über gesunden Lebensstil. In eurem gemeinsamen Umfeld gehen die Meinungen dazu stark auseinander.",1772954641627,74,"ja","critical-7-c2-list0",25,"low","Wie wahrscheinlich ist es, dass du die empfohlene Handlung dann auch tatsächlich umsetzt?","high",13,1,0,13,"7","Bachelor",100,"sport",0,"low",35,"Regelmäßige körperliche Bewegung senkt",2,"6914cff3225dd90f81a6924d","comprehension_marker_assignment_balanced.csv",208663,FALSE,"69aca37e417992637b6ed8da",5926,"Wie stark hast du den Eindruck, dass die Sprecherin möchte, dass du ihre Empfehlung befolgst?","regelmäßig Sport in deinen Alltag integrieren",5926,1772954432964,83,-0.737352914409613,2,0,0.5,0.74,0.35,0.739625,0.350234375,"Prag. Controversy: high
Goal: low"
"3621",FALSE,"1","","Deutsch","critical","low",99,85,TRUE,"durch menschliche Aktivitäten verursacht.","69ad233a79e4c537e188cf04","Dein/e Gesprächspartner/in spricht mit dir über den Klimawandel. In eurem gemeinsamen Umfeld teilen die meisten die Ansicht, dass der Klimawandel durch menschliche Aktivitäten verursacht wird.",1772954641627,85,"ja","critical-1-c0-list0",25,"low","Wie wahrscheinlich ist es, dass du die empfohlene Handlung dann auch tatsächlich umsetzt?","low",15,1,0,15,"1","Bachelor",100,"klimawandel",0,"low",99,"Der Klimawandel wird",0,"6914cff3225dd90f81a6924d","comprehension_marker_assignment_balanced.csv",208663,FALSE,"69aca37e417992637b6ed8da",8619,"Wie stark hast du den Eindruck, dass die Sprecherin möchte, dass du ihre Empfehlung befolgst?","auf Flugreisen verzichten",8619,1772954432964,88,-1.19819848591562,2,0,-0.5,0.85,0.99,0.849453125,0.989234375,"Prag. Controversy: low
Goal: low"
"3621",FALSE,"3","","Deutsch","critical","high",80,77,TRUE,"den Stadtverkehr erheblich.","69ad233a79e4c537e188cf04","Dein/e Gesprächspartner/in spricht mit dir über Verkehrspolitik in eurer Stadt. In eurem gemeinsamen Umfeld gehen die Meinungen dazu weit auseinander.",1772954641627,77,"soviel ich weiß","critical-3-c2-list0",25,"low","Wie wahrscheinlich ist es, dass du die empfohlene Handlung dann auch tatsächlich umsetzt?","high",16,1,0,16,"3","Bachelor",100,"stadtverkehr",0,"low",80,"Ein ausgebautes Nahverkehrsnetz entlastet",2,"6914cff3225dd90f81a6924d","comprehension_marker_assignment_balanced.csv",208663,FALSE,"69aca37e417992637b6ed8da",9294,"Wie stark hast du den Eindruck, dass die Sprecherin möchte, dass du ihre Empfehlung befolgst?","häufiger auf öffentliche Verkehrsmittel umsteigen",9294,1772954432964,71,0.368676457204806,1,-1,0.5,0.77,0.8,0.769578125,0.79953125,"Prag. Controversy: high
Goal: low"
"3622",FALSE,"6","","Deutsch","critical","high",50,93,TRUE,"den Meeresökosystemen erheblich.","69ad24ede9256bc56e26507d","Dein/e Gesprächspartner/in spricht mit dir über Umweltschutz. In eurem gemeinsamen Umfeld herrschen dazu sehr unterschiedliche Meinungen.",1772955402072,93,"ja","critical-6-c3-list2",26,"high","Wie wahrscheinlich ist es, dass du die empfohlene Handlung dann auch tatsächlich umsetzt?","high",1,1,0,1,"6","Abitur",100,"plastik",2,"high",50,"Einwegplastik schadet",3,"5f3024c0ab23864426d6828c","comprehension_marker_assignment_balanced.csv",346060,FALSE,"69aca37e417992637b6ed8da",17688,"Wie stark hast du den Eindruck, dass die Sprecherin möchte, dass du ihre Empfehlung befolgst?","konsequent auf Einwegplastik verzichten",17687,1772955056012,79,-0.368676457204806,2,0,0.5,0.93,0.5,0.929328125,0.5,"Prag. Controversy: high
Goal: high"
"3622",FALSE,"1","","Deutsch","critical","high",12,93,TRUE,"durch menschliche Aktivitäten verursacht.","69ad24ede9256bc56e26507d","Dein/e Gesprächspartner/in spricht mit dir über den Klimawandel. In eurem gemeinsamen Umfeld gehen die Meinungen dazu allerdings stark auseinander.",1772955402072,93,"ja","critical-1-c2-list2",26,"low","Wie wahrscheinlich ist es, dass du die empfohlene Handlung dann auch tatsächlich umsetzt?","high",3,1,0,3,"1","Abitur",100,"klimawandel",2,"low",12,"Der Klimawandel wird",2,"5f3024c0ab23864426d6828c","comprehension_marker_assignment_balanced.csv",346060,FALSE,"69aca37e417992637b6ed8da",24689,"Wie stark hast du den Eindruck, dass die Sprecherin möchte, dass du ihre Empfehlung befolgst?","auf Flugreisen verzichten",24688,1772955056012,88,-1.19819848591562,2,0,0.5,0.93,0.12,0.929328125,0.12059375,"Prag. Controversy: high
Goal: low"
"3622",FALSE,"8","","Deutsch","critical","low",35,71,TRUE,"die regionale Wirtschaft nachhaltig.","69ad24ede9256bc56e26507d","Dein/e Gesprächspartner/in spricht mit dir über Einkaufsgewohnheiten. In eurem gemeinsamen Umfeld teilen die meisten die Überzeugung, dass der Einkauf bei lokalen Händlern die regionale Wirtschaft nachhaltig stärkt.",1772955402072,71,"bekanntlich","critical-8-c1-list2",26,"high","Wie wahrscheinlich ist es, dass du die empfohlene Handlung dann auch tatsächlich umsetzt?","low",4,1,0,4,"8","Abitur",100,"lokalkauf",2,"high",35,"Der Einkauf bei lokalen Händlern stärkt",1,"5f3024c0ab23864426d6828c","comprehension_marker_assignment_balanced.csv",346060,FALSE,"69aca37e417992637b6ed8da",17636,"Wie stark hast du den Eindruck, dass die Sprecherin möchte, dass du ihre Empfehlung befolgst?","öfter bei lokalen Geschäften einkaufen",17636,1772955056012,58,1.56687494312043,3,1,-0.5,0.71,0.35,0.709671875,0.350234375,"Prag. Controversy: low
Goal: high"
"3622",FALSE,"3","","Deutsch","critical","low",97,59,TRUE,"den Stadtverkehr erheblich.","69ad24ede9256bc56e26507d","Dein/e Gesprächspartner/in spricht mit dir über Verkehrspolitik in eurer Stadt. In eurem gemeinsamen Umfeld sehen das die meisten ähnlich, dass ein ausgebautes Nahverkehrsnetz den Stadtverkehr erheblich entlastet.",1772955402072,59,"soviel ich weiß","critical-3-c0-list2",26,"low","Wie wahrscheinlich ist es, dass du die empfohlene Handlung dann auch tatsächlich umsetzt?","low",6,1,0,6,"3","Abitur",100,"stadtverkehr",2,"low",97,"Ein ausgebautes Nahverkehrsnetz entlastet",0,"5f3024c0ab23864426d6828c","comprehension_marker_assignment_balanced.csv",346060,FALSE,"69aca37e417992637b6ed8da",26821,"Wie stark hast du den Eindruck, dass die Sprecherin möchte, dass du ihre Empfehlung befolgst?","häufiger auf öffentliche Verkehrsmittel umsteigen",26821,1772955056012,71,0.368676457204806,1,-1,-0.5,0.59,0.97,0.589859375,0.969265625,"Prag. Controversy: low
Goal: low"
"3622",FALSE,"2","","Deutsch","critical","high",51,80,TRUE,"die Gesundheit.","69ad24ede9256bc56e26507d","Dein/e Gesprächspartner/in spricht mit dir über Ernährungsgewohnheiten. In eurem gemeinsamen Umfeld herrschen dazu sehr unterschiedliche Meinungen.",1772955402072,80,"soviel ich weiß","critical-2-c3-list2",26,"high","Wie wahrscheinlich ist es, dass du die empfohlene Handlung dann auch tatsächlich umsetzt?","high",10,1,0,10,"2","Abitur",100,"ernaehrung",2,"high",51,"Eine überwiegend pflanzliche Ernährung fördert",3,"5f3024c0ab23864426d6828c","comprehension_marker_assignment_balanced.csv",346060,FALSE,"69aca37e417992637b6ed8da",13727,"Wie stark hast du den Eindruck, dass die Sprecherin möchte, dass du ihre Empfehlung befolgst?","mehr pflanzliche Lebensmittel in deinen Alltag einbauen",13727,1772955056012,62,1.19819848591562,1,-1,0.5,0.8,0.51,0.79953125,0.509984375,"Prag. Controversy: high
Goal: high"
"3622",FALSE,"4","","Deutsch","critical","low",73,82,TRUE,"in der heutigen Arbeitswelt unverzichtbar.","69ad24ede9256bc56e26507d","Dein/e Gesprächspartner/in spricht mit dir über Berufsausbildung und Weiterbildung. In eurem gemeinsamen Umfeld teilen die meisten die Ansicht, dass digitale Kompetenzen in der heutigen Arbeitswelt unverzichtbar sind.",1772955402072,82,"bekanntlich","critical-4-c1-list2",26,"high","Wie wahrscheinlich ist es, dass du die empfohlene Handlung dann auch tatsächlich umsetzt?","low",12,1,0,12,"4","Abitur",100,"digitalisierung",2,"high",73,"Digitale Kompetenzen sind",1,"5f3024c0ab23864426d6828c","comprehension_marker_assignment_balanced.csv",346060,FALSE,"69aca37e417992637b6ed8da",13239,"Wie stark hast du den Eindruck, dass die Sprecherin möchte, dass du ihre Empfehlung befolgst?","regelmäßig digitale Weiterbildungsangebote nutzen",13239,1772955056012,85,-0.921691143012016,3,1,-0.5,0.82,0.73,0.8195,0.729640625,"Prag. Controversy: low
Goal: high"
"3622",FALSE,"5","","Deutsch","critical","high",61,93,TRUE,"entscheidend für die kognitive Leistungsfähigkeit.","69ad24ede9256bc56e26507d","Dein/e Gesprächspartner/in spricht mit dir über Gesundheit und Wohlbefinden. In eurem gemeinsamen Umfeld gehen die Meinungen dazu stark auseinander.",1772955402072,93,"ja","critical-5-c2-list2",26,"low","Wie wahrscheinlich ist es, dass du die empfohlene Handlung dann auch tatsächlich umsetzt?","high",14,1,0,14,"5","Abitur",100,"schlaf",2,"low",61,"Ausreichend Schlaf ist",2,"5f3024c0ab23864426d6828c","comprehension_marker_assignment_balanced.csv",346060,FALSE,"69aca37e417992637b6ed8da",15267,"Wie stark hast du den Eindruck, dass die Sprecherin möchte, dass du ihre Empfehlung befolgst?","auf feste Schlafzeiten achten",15267,1772955056012,74,0.0921691143012016,2,0,0.5,0.93,0.61,0.929328125,0.609828125,"Prag. Controversy: high
Goal: low"
"3622",FALSE,"7","","Deutsch","critical","low",96,58,TRUE,"das Risiko für Herz-Kreislauf-Erkrankungen deutlich.","69ad24ede9256bc56e26507d","Dein/e Gesprächspartner/in spricht mit dir über gesunden Lebensstil. In eurem gemeinsamen Umfeld teilen die meisten die Ansicht, dass regelmäßige körperliche Bewegung das Risiko für Herz-Kreislauf-Erkrankungen deutlich senkt.",1772955402072,58,"ja","critical-7-c0-list2",26,"low","Wie wahrscheinlich ist es, dass du die empfohlene Handlung dann auch tatsächlich umsetzt?","low",16,1,0,16,"7","Abitur",100,"sport",2,"low",96,"Regelmäßige körperliche Bewegung senkt",0,"5f3024c0ab23864426d6828c","comprehension_marker_assignment_balanced.csv",346060,FALSE,"69aca37e417992637b6ed8da",21187,"Wie stark hast du den Eindruck, dass die Sprecherin möchte, dass du ihre Empfehlung befolgst?","regelmäßig Sport in deinen Alltag integrieren",21187,1772955056012,83,-0.737352914409613,2,0,-0.5,0.58,0.96,0.579875,0.95928125,"Prag. Controversy: low
Goal: low"
"3623",FALSE,"4","","Deutsch","critical","high",54,64,TRUE,"in der heutigen Arbeitswelt unverzichtbar.","69ad277a097d5e65e0966b5d","Dein/e Gesprächspartner/in spricht mit dir über Berufsausbildung und Weiterbildung. In eurem gemeinsamen Umfeld gehen die Meinungen dazu stark auseinander.",1772955724536,64,"bekanntlich","critical-4-c3-list0",28,"high","Wie wahrscheinlich ist es, dass du die empfohlene Handlung dann auch tatsächlich umsetzt?","high",1,1,0,1,"4","Höherer Abschluss",100,"digitalisierung",0,"high",54,"Digitale Kompetenzen sind",3,"61731903be585f00cb6d0afa","comprehension_marker_assignment_balanced.csv",203337,FALSE,"69aca37e417992637b6ed8da",11148,"Wie stark hast du den Eindruck, dass die Sprecherin möchte, dass du ihre Empfehlung befolgst?","regelmäßig digitale Weiterbildungsangebote nutzen",11148,1772955521199,85,-0.921691143012016,3,1,0.5,0.64,0.54,0.63978125,0.5399375,"Prag. Controversy: high
Goal: high"
"3623",FALSE,"1","","Deutsch","critical","low",49,69,TRUE,"durch menschliche Aktivitäten verursacht.","69ad277a097d5e65e0966b5d","Dein/e Gesprächspartner/in spricht mit dir über den Klimawandel. In eurem gemeinsamen Umfeld teilen die meisten die Ansicht, dass der Klimawandel durch menschliche Aktivitäten verursacht wird.",1772955724536,69,"ja","critical-1-c0-list0",28,"low","Wie wahrscheinlich ist es, dass du die empfohlene Handlung dann auch tatsächlich umsetzt?","low",3,1,0,3,"1","Höherer Abschluss",100,"klimawandel",0,"low",49,"Der Klimawandel wird",0,"61731903be585f00cb6d0afa","comprehension_marker_assignment_balanced.csv",203337,FALSE,"69aca37e417992637b6ed8da",12545,"Wie stark hast du den Eindruck, dass die Sprecherin möchte, dass du ihre Empfehlung befolgst?","auf Flugreisen verzichten",12545,1772955521199,88,-1.19819848591562,2,0,-0.5,0.69,0.49,0.689703125,0.490015625,"Prag. Controversy: low
Goal: low"
