submission_id,is_training,trial_id,comments,languages,trial_type,pc_prag_analysis,rating_adopt,inferred_goal_strength,is_critical,sentence_after,prolific_session_id,context,experiment_end_time,rating_g,marker,trial_key,age,g_implied_analysis,question_adopt,pc_prag,display_order,scale_step,scale_min,trial_index,item_id,education,scale_max,topic,list_num,g_implied,adoption_likelihood,sentence_before,condition_index,prolific_pid,marker_assignment_source,experiment_duration,is_filler,prolific_study_id,rt,question_goal,recommended_action,responseTime,experiment_start_time
3610,true,training,,Deutsch,training,low,74,82,false,"im Arbeitsalltag, konzentriert zu bleiben.",69ad10e7e1735c0b213c626f,"Stell dir vor, ein Freund spricht mit dir über den Arbeitsalltag. In eurem Umfeld sehen die meisten das ähnlich: regelmäßige Pausen helfen dabei, sich besser zu konzentrieren.",1772949964546,82,ja,training,50,high,"Wie wahrscheinlich ist es, dass du die empfohlene Handlung dann auch tatsächlich umsetzt?",low,0,1,0,0,training,Höherer Abschluss,100,training,3,high,74,Regelmäßige Pausen helfen,,615323ff5ce68a5dbe37eebe,manual_training,161987,false,69aca37e417992637b6ed8da,17604,"Wie stark hast du den Eindruck, dass die Sprecherin möchte, dass du ihre Empfehlung befolgst?",heute bewusst kurze Pausen einplanen,11481,1772949802559
3610,false,8,,Deutsch,critical,high,54,70,true,die regionale Wirtschaft nachhaltig.,69ad10e7e1735c0b213c626f,Dein/e Gesprächspartner/in spricht mit dir über Einkaufsgewohnheiten. In eurem gemeinsamen Umfeld gehen die Meinungen dazu weit auseinander.,1772949964546,70,soviel ich weiß,critical-8-c2-list3,50,low,"Wie wahrscheinlich ist es, dass du die empfohlene Handlung dann auch tatsächlich umsetzt?",high,1,1,0,1,8,Höherer Abschluss,100,lokalkauf,3,low,54,Der Einkauf bei lokalen Händlern stärkt,2,615323ff5ce68a5dbe37eebe,comprehension_marker_assignment_balanced.csv,161987,false,69aca37e417992637b6ed8da,10988,"Wie stark hast du den Eindruck, dass die Sprecherin möchte, dass du ihre Empfehlung befolgst?",öfter bei lokalen Geschäften einkaufen,10988,1772949802559
3610,false,106,,Deutsch,filler,filler,67,66,false,die Konzentrationsfähigkeit.,69ad10e7e1735c0b213c626f,"Dein/e Gesprächspartner/in spricht mit dir. Du hast erwähnt, dass du dich nachmittags immer schlapp und unkonzentriert fühlst.",1772949964546,66,soviel ich weiß,filler-106-filler-list3,50,filler,"Wie wahrscheinlich ist es, dass du die empfohlene Handlung dann auch tatsächlich umsetzt?",,2,1,0,2,106,Höherer Abschluss,100,trinken,3,,67,Genügend Wasser zu trinken verbessert,,615323ff5ce68a5dbe37eebe,random_filler,161987,true,69aca37e417992637b6ed8da,9863,"Wie stark hast du den Eindruck, dass die Sprecherin möchte, dass du ihre Empfehlung befolgst?",öfter ein Glas Wasser trinken,9863,1772949802559
3610,false,104,,Deutsch,filler,filler,77,75,false,"vielen Menschen, wach zu werden.",69ad10e7e1735c0b213c626f,"Dein/e Gesprächspartner/in spricht mit dir an der Kaffeemaschine im Büro. Du hast erzählt, dass du morgens immer sehr müde bist.",1772949964546,75,ja,filler-104-filler-list3,50,filler,"Wie wahrscheinlich ist es, dass du die empfohlene Handlung dann auch tatsächlich umsetzt?",,3,1,0,3,104,Höherer Abschluss,100,kaffee,3,,77,Ein Kaffee am Morgen hilft,,615323ff5ce68a5dbe37eebe,random_filler,161987,true,69aca37e417992637b6ed8da,11080,"Wie stark hast du den Eindruck, dass die Sprecherin möchte, dass du ihre Empfehlung befolgst?",morgens eine kleine Kaffeepause einplanen,11080,1772949802559
3610,false,105,,Deutsch,filler,filler,66,86,false,der mentalen Gesundheit gut.,69ad10e7e1735c0b213c626f,Dein/e Gesprächspartner/in spricht mit dir über Arbeit und Erholung. Du arbeitest seit Monaten ohne Urlaub durch und bist erschöpft.,1772949964546,86,ja,filler-105-filler-list3,50,filler,"Wie wahrscheinlich ist es, dass du die empfohlene Handlung dann auch tatsächlich umsetzt?",,4,1,0,4,105,Höherer Abschluss,100,urlaub,3,,66,Regelmäßige Auszeiten tun,,615323ff5ce68a5dbe37eebe,random_filler,161987,true,69aca37e417992637b6ed8da,7001,"Wie stark hast du den Eindruck, dass die Sprecherin möchte, dass du ihre Empfehlung befolgst?",dieses Jahr endlich Urlaub nehmen,7001,1772949802559
3610,false,5,,Deutsch,critical,high,64,77,true,entscheidend für die kognitive Leistungsfähigkeit.,69ad10e7e1735c0b213c626f,Dein/e Gesprächspartner/in spricht mit dir über Gesundheit und Wohlbefinden. In eurem gemeinsamen Umfeld gehen die Meinungen dazu stark auseinander.,1772949964546,77,ja,critical-5-c3-list3,50,high,"Wie wahrscheinlich ist es, dass du die empfohlene Handlung dann auch tatsächlich umsetzt?",high,5,1,0,5,5,Höherer Abschluss,100,schlaf,3,high,64,Ausreichend Schlaf ist,3,615323ff5ce68a5dbe37eebe,comprehension_marker_assignment_balanced.csv,161987,false,69aca37e417992637b6ed8da,6040,"Wie stark hast du den Eindruck, dass die Sprecherin möchte, dass du ihre Empfehlung befolgst?",auf feste Schlafzeiten achten,6040,1772949802559
3610,false,103,,Deutsch,filler,filler,74,87,false,im Vergleich zu Fertiggerichten Geld.,69ad10e7e1735c0b213c626f,"Dein/e Gesprächspartner/in spricht mit dir über den Ernährungsalltag. Du hast erwähnt, dass dein Geld für Essen kaum reicht.",1772949964546,87,bekanntlich,filler-103-filler-list3,50,filler,"Wie wahrscheinlich ist es, dass du die empfohlene Handlung dann auch tatsächlich umsetzt?",,6,1,0,6,103,Höherer Abschluss,100,kochen,3,,74,Frisch Kochen spart,,615323ff5ce68a5dbe37eebe,random_filler,161987,true,69aca37e417992637b6ed8da,5784,"Wie stark hast du den Eindruck, dass die Sprecherin möchte, dass du ihre Empfehlung befolgst?",öfter selbst kochen,5784,1772949802559
3610,false,3,,Deutsch,critical,low,63,93,true,den Stadtverkehr erheblich.,69ad10e7e1735c0b213c626f,"Dein/e Gesprächspartner/in spricht mit dir über Verkehrspolitik in eurer Stadt. In eurem gemeinsamen Umfeld sehen das die meisten ähnlich, dass ein ausgebautes Nahverkehrsnetz den Stadtverkehr erheblich entlastet.",1772949964546,93,bekanntlich,critical-3-c1-list3,50,high,"Wie wahrscheinlich ist es, dass du die empfohlene Handlung dann auch tatsächlich umsetzt?",low,7,1,0,7,3,Höherer Abschluss,100,stadtverkehr,3,high,63,Ein ausgebautes Nahverkehrsnetz entlastet,1,615323ff5ce68a5dbe37eebe,comprehension_marker_assignment_balanced.csv,161987,false,69aca37e417992637b6ed8da,8651,"Wie stark hast du den Eindruck, dass die Sprecherin möchte, dass du ihre Empfehlung befolgst?",häufiger auf öffentliche Verkehrsmittel umsteigen,8651,1772949802559
3610,false,102,,Deutsch,filler,filler,51,71,false,gutes Licht die Augen.,69ad10e7e1735c0b213c626f,Dein/e Gesprächspartner/in spricht mit dir über Lesegewohnheiten. Du hast dich über Kopfschmerzen beim Lesen beklagt.,1772949964546,71,soviel ich weiß,filler-102-filler-list3,50,filler,"Wie wahrscheinlich ist es, dass du die empfohlene Handlung dann auch tatsächlich umsetzt?",,8,1,0,8,102,Höherer Abschluss,100,leselicht,3,,51,Beim Lesen schont,,615323ff5ce68a5dbe37eebe,random_filler,161987,true,69aca37e417992637b6ed8da,14931,"Wie stark hast du den Eindruck, dass die Sprecherin möchte, dass du ihre Empfehlung befolgst?",dir eine bessere Leselampe anschaffen,14931,1772949802559
3610,false,2,,Deutsch,critical,low,52,70,true,die Gesundheit.,69ad10e7e1735c0b213c626f,"Dein/e Gesprächspartner/in spricht mit dir über Ernährungsgewohnheiten. In eurem gemeinsamen Umfeld teilen die meisten die Überzeugung, dass eine überwiegend pflanzliche Ernährung die Gesundheit fördert.",1772949964546,70,soviel ich weiß,critical-2-c0-list3,50,low,"Wie wahrscheinlich ist es, dass du die empfohlene Handlung dann auch tatsächlich umsetzt?",low,9,1,0,9,2,Höherer Abschluss,100,ernaehrung,3,low,52,Eine überwiegend pflanzliche Ernährung fördert,0,615323ff5ce68a5dbe37eebe,comprehension_marker_assignment_balanced.csv,161987,false,69aca37e417992637b6ed8da,5692,"Wie stark hast du den Eindruck, dass die Sprecherin möchte, dass du ihre Empfehlung befolgst?",mehr pflanzliche Lebensmittel in deinen Alltag einbauen,5691,1772949802559
3610,false,7,,Deutsch,critical,low,64,88,true,das Risiko für Herz-Kreislauf-Erkrankungen deutlich.,69ad10e7e1735c0b213c626f,"Dein/e Gesprächspartner/in spricht mit dir über gesunden Lebensstil. In eurem gemeinsamen Umfeld teilen die meisten die Ansicht, dass regelmäßige körperliche Bewegung das Risiko für Herz-Kreislauf-Erkrankungen deutlich senkt.",1772949964546,88,bekanntlich,critical-7-c1-list3,50,high,"Wie wahrscheinlich ist es, dass du die empfohlene Handlung dann auch tatsächlich umsetzt?",low,10,1,0,10,7,Höherer Abschluss,100,sport,3,high,64,Regelmäßige körperliche Bewegung senkt,1,615323ff5ce68a5dbe37eebe,comprehension_marker_assignment_balanced.csv,161987,false,69aca37e417992637b6ed8da,6731,"Wie stark hast du den Eindruck, dass die Sprecherin möchte, dass du ihre Empfehlung befolgst?",regelmäßig Sport in deinen Alltag integrieren,6731,1772949802559
3610,false,101,,Deutsch,filler,filler,58,81,false,für Reisen innerhalb Deutschlands sehr praktisch.,69ad10e7e1735c0b213c626f,"Dein/e Gesprächspartner/in spricht mit dir über Reisemöglichkeiten in Deutschland. Ihr überlegt, wie man umweltfreundlich von München nach Hamburg kommen kann.",1772949964546,81,ja,filler-101-filler-list3,50,filler,"Wie wahrscheinlich ist es, dass du die empfohlene Handlung dann auch tatsächlich umsetzt?",,11,1,0,11,101,Höherer Abschluss,100,bahn,3,,58,Der Zug ist,,615323ff5ce68a5dbe37eebe,random_filler,161987,true,69aca37e417992637b6ed8da,6817,"Wie stark hast du den Eindruck, dass die Sprecherin möchte, dass du ihre Empfehlung befolgst?",häufiger mit der Bahn reisen,6817,1772949802559
3610,false,4,,Deutsch,critical,high,72,83,true,in der heutigen Arbeitswelt unverzichtbar.,69ad10e7e1735c0b213c626f,Dein/e Gesprächspartner/in spricht mit dir über Berufsausbildung und Weiterbildung. In eurem gemeinsamen Umfeld gehen die Meinungen dazu stark auseinander.,1772949964546,83,ja,critical-4-c2-list3,50,low,"Wie wahrscheinlich ist es, dass du die empfohlene Handlung dann auch tatsächlich umsetzt?",high,12,1,0,12,4,Höherer Abschluss,100,digitalisierung,3,low,72,Digitale Kompetenzen sind,2,615323ff5ce68a5dbe37eebe,comprehension_marker_assignment_balanced.csv,161987,false,69aca37e417992637b6ed8da,12312,"Wie stark hast du den Eindruck, dass die Sprecherin möchte, dass du ihre Empfehlung befolgst?",regelmäßig digitale Weiterbildungsangebote nutzen,12312,1772949802559
3610,false,107,,Deutsch,filler,filler,64,87,false,die Luftqualität merklich.,69ad10e7e1735c0b213c626f,"Dein/e Gesprächspartner/in spricht mit dir in eurem schlecht belüfteten Großraumbüro. Du hast erwähnt, dass du dich dort häufig unwohl fühlst.",1772949964546,87,ja,filler-107-filler-list3,50,filler,"Wie wahrscheinlich ist es, dass du die empfohlene Handlung dann auch tatsächlich umsetzt?",,13,1,0,13,107,Höherer Abschluss,100,frischluft,3,,64,Regelmäßiges Lüften verbessert,,615323ff5ce68a5dbe37eebe,random_filler,161987,true,69aca37e417992637b6ed8da,6484,"Wie stark hast du den Eindruck, dass die Sprecherin möchte, dass du ihre Empfehlung befolgst?",dein Büro öfter lüften,6484,1772949802559
3610,false,1,,Deutsch,critical,high,55,90,true,durch menschliche Aktivitäten verursacht.,69ad10e7e1735c0b213c626f,Dein/e Gesprächspartner/in spricht mit dir über den Klimawandel. In eurem gemeinsamen Umfeld gehen die Meinungen dazu allerdings stark auseinander.,1772949964546,90,bekanntlich,critical-1-c3-list3,50,high,"Wie wahrscheinlich ist es, dass du die empfohlene Handlung dann auch tatsächlich umsetzt?",high,14,1,0,14,1,Höherer Abschluss,100,klimawandel,3,high,55,Der Klimawandel wird,3,615323ff5ce68a5dbe37eebe,comprehension_marker_assignment_balanced.csv,161987,false,69aca37e417992637b6ed8da,5236,"Wie stark hast du den Eindruck, dass die Sprecherin möchte, dass du ihre Empfehlung befolgst?",auf Flugreisen verzichten,5236,1772949802559
3610,false,6,,Deutsch,critical,low,56,75,true,den Meeresökosystemen erheblich.,69ad10e7e1735c0b213c626f,"Dein/e Gesprächspartner/in spricht mit dir über Umweltschutz. In eurem gemeinsamen Umfeld teilen die meisten die Überzeugung, dass Einwegplastik den Meeresökosystemen erheblich schadet.",1772949964546,75,soviel ich weiß,critical-6-c0-list3,50,low,"Wie wahrscheinlich ist es, dass du die empfohlene Handlung dann auch tatsächlich umsetzt?",low,15,1,0,15,6,Höherer Abschluss,100,plastik,3,low,56,Einwegplastik schadet,0,615323ff5ce68a5dbe37eebe,comprehension_marker_assignment_balanced.csv,161987,false,69aca37e417992637b6ed8da,5890,"Wie stark hast du den Eindruck, dass die Sprecherin möchte, dass du ihre Empfehlung befolgst?",konsequent auf Einwegplastik verzichten,5890,1772949802559
3610,false,108,,Deutsch,filler,filler,64,88,false,auf Dauer das Gehör.,69ad10e7e1735c0b213c626f,Dein/e Gesprächspartner/in spricht mit dir über Hörgewohnheiten. Du hörst ständig mit voller Lautstärke Musik über Kopfhörer.,1772949964546,88,ja,filler-108-filler-list3,50,filler,"Wie wahrscheinlich ist es, dass du die empfohlene Handlung dann auch tatsächlich umsetzt?",,16,1,0,16,108,Höherer Abschluss,100,laerm,3,,64,Laute Musik in Kopfhörern schädigt,,615323ff5ce68a5dbe37eebe,random_filler,161987,true,69aca37e417992637b6ed8da,7267,"Wie stark hast du den Eindruck, dass die Sprecherin möchte, dass du ihre Empfehlung befolgst?",die Lautstärke beim Musikhören reduzieren,7267,1772949802559
3611,true,training,,Deutsch,training,low,62,55,false,"im Arbeitsalltag, konzentriert zu bleiben.",69ad10c182ae921394d7131b,"Stell dir vor, ein Freund spricht mit dir über den Arbeitsalltag. In eurem Umfeld sehen die meisten das ähnlich: regelmäßige Pausen helfen dabei, sich besser zu konzentrieren.",1772950295926,55,ja,training,32,high,"Wie wahrscheinlich ist es, dass du die empfohlene Handlung dann auch tatsächlich umsetzt?",low,0,1,0,0,training,Höherer Abschluss,100,training,0,high,62,Regelmäßige Pausen helfen,,5b8eab705206680001da3583,manual_training,593447,false,69aca37e417992637b6ed8da,21262,"Wie stark hast du den Eindruck, dass die Sprecherin möchte, dass du ihre Empfehlung befolgst?",heute bewusst kurze Pausen einplanen,17624,1772949702479
3611,false,103,,Deutsch,filler,filler,30,32,false,im Vergleich zu Fertiggerichten Geld.,69ad10c182ae921394d7131b,"Dein/e Gesprächspartner/in spricht mit dir über den Ernährungsalltag. Du hast erwähnt, dass dein Geld für Essen kaum reicht.",1772950295926,32,bekanntlich,filler-103-filler-list0,32,filler,"Wie wahrscheinlich ist es, dass du die empfohlene Handlung dann auch tatsächlich umsetzt?",,1,1,0,1,103,Höherer Abschluss,100,kochen,0,,30,Frisch Kochen spart,,5b8eab705206680001da3583,random_filler,593447,true,69aca37e417992637b6ed8da,11130,"Wie stark hast du den Eindruck, dass die Sprecherin möchte, dass du ihre Empfehlung befolgst?",öfter selbst kochen,11130,1772949702479
3611,false,108,,Deutsch,filler,filler,13,20,false,auf Dauer das Gehör.,69ad10c182ae921394d7131b,Dein/e Gesprächspartner/in spricht mit dir über Hörgewohnheiten. Du hörst ständig mit voller Lautstärke Musik über Kopfhörer.,1772950295926,20,soviel ich weiß,filler-108-filler-list0,32,filler,"Wie wahrscheinlich ist es, dass du die empfohlene Handlung dann auch tatsächlich umsetzt?",,2,1,0,2,108,Höherer Abschluss,100,laerm,0,,13,Laute Musik in Kopfhörern schädigt,,5b8eab705206680001da3583,random_filler,593447,true,69aca37e417992637b6ed8da,6618,"Wie stark hast du den Eindruck, dass die Sprecherin möchte, dass du ihre Empfehlung befolgst?",die Lautstärke beim Musikhören reduzieren,6618,1772949702479
3611,false,105,,Deutsch,filler,filler,12,13,false,der mentalen Gesundheit gut.,69ad10c182ae921394d7131b,Dein/e Gesprächspartner/in spricht mit dir über Arbeit und Erholung. Du arbeitest seit Monaten ohne Urlaub durch und bist erschöpft.,1772950295926,13,soviel ich weiß,filler-105-filler-list0,32,filler,"Wie wahrscheinlich ist es, dass du die empfohlene Handlung dann auch tatsächlich umsetzt?",,3,1,0,3,105,Höherer Abschluss,100,urlaub,0,,12,Regelmäßige Auszeiten tun,,5b8eab705206680001da3583,random_filler,593447,true,69aca37e417992637b6ed8da,4971,"Wie stark hast du den Eindruck, dass die Sprecherin möchte, dass du ihre Empfehlung befolgst?",dieses Jahr endlich Urlaub nehmen,4971,1772949702479
3611,false,8,,Deutsch,critical,high,8,15,true,die regionale Wirtschaft nachhaltig.,69ad10c182ae921394d7131b,Dein/e Gesprächspartner/in spricht mit dir über Einkaufsgewohnheiten. In eurem gemeinsamen Umfeld gehen die Meinungen dazu weit auseinander.,1772950295926,15,soviel ich weiß,critical-8-c3-list0,32,high,"Wie wahrscheinlich ist es, dass du die empfohlene Handlung dann auch tatsächlich umsetzt?",high,4,1,0,4,8,Höherer Abschluss,100,lokalkauf,0,high,8,Der Einkauf bei lokalen Händlern stärkt,3,5b8eab705206680001da3583,comprehension_marker_assignment_balanced.csv,593447,false,69aca37e417992637b6ed8da,5513,"Wie stark hast du den Eindruck, dass die Sprecherin möchte, dass du ihre Empfehlung befolgst?",öfter bei lokalen Geschäften einkaufen,5513,1772949702479
3611,false,4,,Deutsch,critical,high,22,22,true,in der heutigen Arbeitswelt unverzichtbar.,69ad10c182ae921394d7131b,Dein/e Gesprächspartner/in spricht mit dir über Berufsausbildung und Weiterbildung. In eurem gemeinsamen Umfeld gehen die Meinungen dazu stark auseinander.,1772950295926,22,bekanntlich,critical-4-c3-list0,32,high,"Wie wahrscheinlich ist es, dass du die empfohlene Handlung dann auch tatsächlich umsetzt?",high,5,1,0,5,4,Höherer Abschluss,100,digitalisierung,0,high,22,Digitale Kompetenzen sind,3,5b8eab705206680001da3583,comprehension_marker_assignment_balanced.csv,593447,false,69aca37e417992637b6ed8da,4608,"Wie stark hast du den Eindruck, dass die Sprecherin möchte, dass du ihre Empfehlung befolgst?",regelmäßig digitale Weiterbildungsangebote nutzen,4608,1772949702479
3611,false,2,,Deutsch,critical,low,27,29,true,die Gesundheit.,69ad10c182ae921394d7131b,"Dein/e Gesprächspartner/in spricht mit dir über Ernährungsgewohnheiten. In eurem gemeinsamen Umfeld teilen die meisten die Überzeugung, dass eine überwiegend pflanzliche Ernährung die Gesundheit fördert.",1772950295926,29,bekanntlich,critical-2-c1-list0,32,high,"Wie wahrscheinlich ist es, dass du die empfohlene Handlung dann auch tatsächlich umsetzt?",low,6,1,0,6,2,Höherer Abschluss,100,ernaehrung,0,high,27,Eine überwiegend pflanzliche Ernährung fördert,1,5b8eab705206680001da3583,comprehension_marker_assignment_balanced.csv,593447,false,69aca37e417992637b6ed8da,3388,"Wie stark hast du den Eindruck, dass die Sprecherin möchte, dass du ihre Empfehlung befolgst?",mehr pflanzliche Lebensmittel in deinen Alltag einbauen,3388,1772949702479
3611,false,5,,Deutsch,critical,low,25,26,true,entscheidend für die kognitive Leistungsfähigkeit.,69ad10c182ae921394d7131b,"Dein/e Gesprächspartner/in spricht mit dir über Gesundheit und Wohlbefinden. In eurem gemeinsamen Umfeld teilen die meisten die Ansicht, dass ausreichend Schlaf entscheidend für die kognitive Leistungsfähigkeit ist.",1772950295926,26,soviel ich weiß,critical-5-c0-list0,32,low,"Wie wahrscheinlich ist es, dass du die empfohlene Handlung dann auch tatsächlich umsetzt?",low,7,1,0,7,5,Höherer Abschluss,100,schlaf,0,low,25,Ausreichend Schlaf ist,0,5b8eab705206680001da3583,comprehension_marker_assignment_balanced.csv,593447,false,69aca37e417992637b6ed8da,9957,"Wie stark hast du den Eindruck, dass die Sprecherin möchte, dass du ihre Empfehlung befolgst?",auf feste Schlafzeiten achten,9957,1772949702479
3611,false,107,,Deutsch,filler,filler,25,25,false,die Luftqualität merklich.,69ad10c182ae921394d7131b,"Dein/e Gesprächspartner/in spricht mit dir in eurem schlecht belüfteten Großraumbüro. Du hast erwähnt, dass du dich dort häufig unwohl fühlst.",1772950295926,25,soviel ich weiß,filler-107-filler-list0,32,filler,"Wie wahrscheinlich ist es, dass du die empfohlene Handlung dann auch tatsächlich umsetzt?",,8,1,0,8,107,Höherer Abschluss,100,frischluft,0,,25,Regelmäßiges Lüften verbessert,,5b8eab705206680001da3583,random_filler,593447,true,69aca37e417992637b6ed8da,6577,"Wie stark hast du den Eindruck, dass die Sprecherin möchte, dass du ihre Empfehlung befolgst?",dein Büro öfter lüften,6577,1772949702479
3611,false,1,,Deutsch,critical,low,65,63,true,durch menschliche Aktivitäten verursacht.,69ad10c182ae921394d7131b,"Dein/e Gesprächspartner/in spricht mit dir über den Klimawandel. In eurem gemeinsamen Umfeld teilen die meisten die Ansicht, dass der Klimawandel durch menschliche Aktivitäten verursacht wird.",1772950295926,63,ja,critical-1-c0-list0,32,low,"Wie wahrscheinlich ist es, dass du die empfohlene Handlung dann auch tatsächlich umsetzt?",low,9,1,0,9,1,Höherer Abschluss,100,klimawandel,0,low,65,Der Klimawandel wird,0,5b8eab705206680001da3583,comprehension_marker_assignment_balanced.csv,593447,false,69aca37e417992637b6ed8da,6669,"Wie stark hast du den Eindruck, dass die Sprecherin möchte, dass du ihre Empfehlung befolgst?",auf Flugreisen verzichten,6669,1772949702479
3611,false,3,,Deutsch,critical,high,11,10,true,den Stadtverkehr erheblich.,69ad10c182ae921394d7131b,Dein/e Gesprächspartner/in spricht mit dir über Verkehrspolitik in eurer Stadt. In eurem gemeinsamen Umfeld gehen die Meinungen dazu weit auseinander.,1772950295926,10,soviel ich weiß,critical-3-c2-list0,32,low,"Wie wahrscheinlich ist es, dass du die empfohlene Handlung dann auch tatsächlich umsetzt?",high,10,1,0,10,3,Höherer Abschluss,100,stadtverkehr,0,low,11,Ein ausgebautes Nahverkehrsnetz entlastet,2,5b8eab705206680001da3583,comprehension_marker_assignment_balanced.csv,593447,false,69aca37e417992637b6ed8da,4638,"Wie stark hast du den Eindruck, dass die Sprecherin möchte, dass du ihre Empfehlung befolgst?",häufiger auf öffentliche Verkehrsmittel umsteigen,4638,1772949702479
3611,false,104,,Deutsch,filler,filler,9,9,false,"vielen Menschen, wach zu werden.",69ad10c182ae921394d7131b,"Dein/e Gesprächspartner/in spricht mit dir an der Kaffeemaschine im Büro. Du hast erzählt, dass du morgens immer sehr müde bist.",1772950295926,9,soviel ich weiß,filler-104-filler-list0,32,filler,"Wie wahrscheinlich ist es, dass du die empfohlene Handlung dann auch tatsächlich umsetzt?",,11,1,0,11,104,Höherer Abschluss,100,kaffee,0,,9,Ein Kaffee am Morgen hilft,,5b8eab705206680001da3583,random_filler,593447,true,69aca37e417992637b6ed8da,3871,"Wie stark hast du den Eindruck, dass die Sprecherin möchte, dass du ihre Empfehlung befolgst?",morgens eine kleine Kaffeepause einplanen,3871,1772949702479
3611,false,102,,Deutsch,filler,filler,37,38,false,gutes Licht die Augen.,69ad10c182ae921394d7131b,Dein/e Gesprächspartner/in spricht mit dir über Lesegewohnheiten. Du hast dich über Kopfschmerzen beim Lesen beklagt.,1772950295926,38,bekanntlich,filler-102-filler-list0,32,filler,"Wie wahrscheinlich ist es, dass du die empfohlene Handlung dann auch tatsächlich umsetzt?",,12,1,0,12,102,Höherer Abschluss,100,leselicht,0,,37,Beim Lesen schont,,5b8eab705206680001da3583,random_filler,593447,true,69aca37e417992637b6ed8da,7637,"Wie stark hast du den Eindruck, dass die Sprecherin möchte, dass du ihre Empfehlung befolgst?",dir eine bessere Leselampe anschaffen,7637,1772949702479
3611,false,6,,Deutsch,critical,low,32,32,true,den Meeresökosystemen erheblich.,69ad10c182ae921394d7131b,"Dein/e Gesprächspartner/in spricht mit dir über Umweltschutz. In eurem gemeinsamen Umfeld teilen die meisten die Überzeugung, dass Einwegplastik den Meeresökosystemen erheblich schadet.",1772950295926,32,bekanntlich,critical-6-c1-list0,32,high,"Wie wahrscheinlich ist es, dass du die empfohlene Handlung dann auch tatsächlich umsetzt?",low,13,1,0,13,6,Höherer Abschluss,100,plastik,0,high,32,Einwegplastik schadet,1,5b8eab705206680001da3583,comprehension_marker_assignment_balanced.csv,593447,false,69aca37e417992637b6ed8da,4051,"Wie stark hast du den Eindruck, dass die Sprecherin möchte, dass du ihre Empfehlung befolgst?",konsequent auf Einwegplastik verzichten,4051,1772949702479
3611,false,7,,Deutsch,critical,high,62,61,true,das Risiko für Herz-Kreislauf-Erkrankungen deutlich.,69ad10c182ae921394d7131b,Dein/e Gesprächspartner/in spricht mit dir über gesunden Lebensstil. In eurem gemeinsamen Umfeld gehen die Meinungen dazu stark auseinander.,1772950295926,61,ja,critical-7-c2-list0,32,low,"Wie wahrscheinlich ist es, dass du die empfohlene Handlung dann auch tatsächlich umsetzt?",high,14,1,0,14,7,Höherer Abschluss,100,sport,0,low,62,Regelmäßige körperliche Bewegung senkt,2,5b8eab705206680001da3583,comprehension_marker_assignment_balanced.csv,593447,false,69aca37e417992637b6ed8da,5046,"Wie stark hast du den Eindruck, dass die Sprecherin möchte, dass du ihre Empfehlung befolgst?",regelmäßig Sport in deinen Alltag integrieren,5046,1772949702479
3611,false,106,,Deutsch,filler,filler,62,64,false,die Konzentrationsfähigkeit.,69ad10c182ae921394d7131b,"Dein/e Gesprächspartner/in spricht mit dir. Du hast erwähnt, dass du dich nachmittags immer schlapp und unkonzentriert fühlst.",1772950295926,64,ja,filler-106-filler-list0,32,filler,"Wie wahrscheinlich ist es, dass du die empfohlene Handlung dann auch tatsächlich umsetzt?",,15,1,0,15,106,Höherer Abschluss,100,trinken,0,,62,Genügend Wasser zu trinken verbessert,,5b8eab705206680001da3583,random_filler,593447,true,69aca37e417992637b6ed8da,3648,"Wie stark hast du den Eindruck, dass die Sprecherin möchte, dass du ihre Empfehlung befolgst?",öfter ein Glas Wasser trinken,3648,1772949702479
3611,false,101,,Deutsch,filler,filler,61,59,false,für Reisen innerhalb Deutschlands sehr praktisch.,69ad10c182ae921394d7131b,"Dein/e Gesprächspartner/in spricht mit dir über Reisemöglichkeiten in Deutschland. Ihr überlegt, wie man umweltfreundlich von München nach Hamburg kommen kann.",1772950295926,59,ja,filler-101-filler-list0,32,filler,"Wie wahrscheinlich ist es, dass du die empfohlene Handlung dann auch tatsächlich umsetzt?",,16,1,0,16,101,Höherer Abschluss,100,bahn,0,,61,Der Zug ist,,5b8eab705206680001da3583,random_filler,593447,true,69aca37e417992637b6ed8da,6239,"Wie stark hast du den Eindruck, dass die Sprecherin möchte, dass du ihre Empfehlung befolgst?",häufiger mit der Bahn reisen,6239,1772949702479
3612,true,training,,Deutsch,training,low,37,66,false,"im Arbeitsalltag, konzentriert zu bleiben.",69ad13bc107bead9257c5368,"Stell dir vor, ein Freund spricht mit dir über den Arbeitsalltag. In eurem Umfeld sehen die meisten das ähnlich: regelmäßige Pausen helfen dabei, sich besser zu konzentrieren.",1772950664133,66,ja,training,28,high,"Wie wahrscheinlich ist es, dass du die empfohlene Handlung dann auch tatsächlich umsetzt?",low,0,1,0,0,training,Bachelor,100,training,1,high,37,Regelmäßige Pausen helfen,,631f2951646392c69506e361,manual_training,198876,false,69aca37e417992637b6ed8da,53564,"Wie stark hast du den Eindruck, dass die Sprecherin möchte, dass du ihre Empfehlung befolgst?",heute bewusst kurze Pausen einplanen,47889,1772950465257
3612,false,7,,Deutsch,critical,high,63,46,true,das Risiko für Herz-Kreislauf-Erkrankungen deutlich.,69ad13bc107bead9257c5368,Dein/e Gesprächspartner/in spricht mit dir über gesunden Lebensstil. In eurem gemeinsamen Umfeld gehen die Meinungen dazu stark auseinander.,1772950664133,46,bekanntlich,critical-7-c3-list1,28,high,"Wie wahrscheinlich ist es, dass du die empfohlene Handlung dann auch tatsächlich umsetzt?",high,1,1,0,1,7,Bachelor,100,sport,1,high,63,Regelmäßige körperliche Bewegung senkt,3,631f2951646392c69506e361,comprehension_marker_assignment_balanced.csv,198876,false,69aca37e417992637b6ed8da,10586,"Wie stark hast du den Eindruck, dass die Sprecherin möchte, dass du ihre Empfehlung befolgst?",regelmäßig Sport in deinen Alltag integrieren,10586,1772950465257
3612,false,3,,Deutsch,critical,high,45,54,true,den Stadtverkehr erheblich.,69ad13bc107bead9257c5368,Dein/e Gesprächspartner/in spricht mit dir über Verkehrspolitik in eurer Stadt. In eurem gemeinsamen Umfeld gehen die Meinungen dazu weit auseinander.,1772950664133,54,ja,critical-3-c3-list1,28,high,"Wie wahrscheinlich ist es, dass du die empfohlene Handlung dann auch tatsächlich umsetzt?",high,2,1,0,2,3,Bachelor,100,stadtverkehr,1,high,45,Ein ausgebautes Nahverkehrsnetz entlastet,3,631f2951646392c69506e361,comprehension_marker_assignment_balanced.csv,198876,false,69aca37e417992637b6ed8da,9130,"Wie stark hast du den Eindruck, dass die Sprecherin möchte, dass du ihre Empfehlung befolgst?",häufiger auf öffentliche Verkehrsmittel umsteigen,9130,1772950465257
3612,false,6,,Deutsch,critical,high,55,57,true,den Meeresökosystemen erheblich.,69ad13bc107bead9257c5368,Dein/e Gesprächspartner/in spricht mit dir über Umweltschutz. In eurem gemeinsamen Umfeld herrschen dazu sehr unterschiedliche Meinungen.,1772950664133,57,ja,critical-6-c2-list1,28,low,"Wie wahrscheinlich ist es, dass du die empfohlene Handlung dann auch tatsächlich umsetzt?",high,3,1,0,3,6,Bachelor,100,plastik,1,low,55,Einwegplastik schadet,2,631f2951646392c69506e361,comprehension_marker_assignment_balanced.csv,198876,false,69aca37e417992637b6ed8da,8950,"Wie stark hast du den Eindruck, dass die Sprecherin möchte, dass du ihre Empfehlung befolgst?",konsequent auf Einwegplastik verzichten,8950,1772950465257
3612,false,103,,Deutsch,filler,filler,82,44,false,im Vergleich zu Fertiggerichten Geld.,69ad13bc107bead9257c5368,"Dein/e Gesprächspartner/in spricht mit dir über den Ernährungsalltag. Du hast erwähnt, dass dein Geld für Essen kaum reicht.",1772950664133,44,ja,filler-103-filler-list1,28,filler,"Wie wahrscheinlich ist es, dass du die empfohlene Handlung dann auch tatsächlich umsetzt?",,4,1,0,4,103,Bachelor,100,kochen,1,,82,Frisch Kochen spart,,631f2951646392c69506e361,random_filler,198876,true,69aca37e417992637b6ed8da,11891,"Wie stark hast du den Eindruck, dass die Sprecherin möchte, dass du ihre Empfehlung befolgst?",öfter selbst kochen,11891,1772950465257
3612,false,107,,Deutsch,filler,filler,57,66,false,die Luftqualität merklich.,69ad13bc107bead9257c5368,"Dein/e Gesprächspartner/in spricht mit dir in eurem schlecht belüfteten Großraumbüro. Du hast erwähnt, dass du dich dort häufig unwohl fühlst.",1772950664133,66,soviel ich weiß,filler-107-filler-list1,28,filler,"Wie wahrscheinlich ist es, dass du die empfohlene Handlung dann auch tatsächlich umsetzt?",,5,1,0,5,107,Bachelor,100,frischluft,1,,57,Regelmäßiges Lüften verbessert,,631f2951646392c69506e361,random_filler,198876,true,69aca37e417992637b6ed8da,10010,"Wie stark hast du den Eindruck, dass die Sprecherin möchte, dass du ihre Empfehlung befolgst?",dein Büro öfter lüften,10010,1772950465257
3612,false,101,,Deutsch,filler,filler,9,44,false,für Reisen innerhalb Deutschlands sehr praktisch.,69ad13bc107bead9257c5368,"Dein/e Gesprächspartner/in spricht mit dir über Reisemöglichkeiten in Deutschland. Ihr überlegt, wie man umweltfreundlich von München nach Hamburg kommen kann.",1772950664133,44,soviel ich weiß,filler-101-filler-list1,28,filler,"Wie wahrscheinlich ist es, dass du die empfohlene Handlung dann auch tatsächlich umsetzt?",,6,1,0,6,101,Bachelor,100,bahn,1,,9,Der Zug ist,,631f2951646392c69506e361,random_filler,198876,true,69aca37e417992637b6ed8da,8495,"Wie stark hast du den Eindruck, dass die Sprecherin möchte, dass du ihre Empfehlung befolgst?",häufiger mit der Bahn reisen,8495,1772950465257
3612,false,4,,Deutsch,critical,low,21,26,true,in der heutigen Arbeitswelt unverzichtbar.,69ad13bc107bead9257c5368,"Dein/e Gesprächspartner/in spricht mit dir über Berufsausbildung und Weiterbildung. In eurem gemeinsamen Umfeld teilen die meisten die Ansicht, dass digitale Kompetenzen in der heutigen Arbeitswelt unverzichtbar sind.",1772950664133,26,ja,critical-4-c0-list1,28,low,"Wie wahrscheinlich ist es, dass du die empfohlene Handlung dann auch tatsächlich umsetzt?",low,7,1,0,7,4,Bachelor,100,digitalisierung,1,low,21,Digitale Kompetenzen sind,0,631f2951646392c69506e361,comprehension_marker_assignment_balanced.csv,198876,false,69aca37e417992637b6ed8da,8201,"Wie stark hast du den Eindruck, dass die Sprecherin möchte, dass du ihre Empfehlung befolgst?",regelmäßig digitale Weiterbildungsangebote nutzen,8202,1772950465257
3612,false,8,,Deutsch,critical,low,37,36,true,die regionale Wirtschaft nachhaltig.,69ad13bc107bead9257c5368,"Dein/e Gesprächspartner/in spricht mit dir über Einkaufsgewohnheiten. In eurem gemeinsamen Umfeld teilen die meisten die Überzeugung, dass der Einkauf bei lokalen Händlern die regionale Wirtschaft nachhaltig stärkt.",1772950664133,36,soviel ich weiß,critical-8-c0-list1,28,low,"Wie wahrscheinlich ist es, dass du die empfohlene Handlung dann auch tatsächlich umsetzt?",low,8,1,0,8,8,Bachelor,100,lokalkauf,1,low,37,Der Einkauf bei lokalen Händlern stärkt,0,631f2951646392c69506e361,comprehension_marker_assignment_balanced.csv,198876,false,69aca37e417992637b6ed8da,6330,"Wie stark hast du den Eindruck, dass die Sprecherin möchte, dass du ihre Empfehlung befolgst?",öfter bei lokalen Geschäften einkaufen,6330,1772950465257
3612,false,102,,Deutsch,filler,filler,31,62,false,gutes Licht die Augen.,69ad13bc107bead9257c5368,Dein/e Gesprächspartner/in spricht mit dir über Lesegewohnheiten. Du hast dich über Kopfschmerzen beim Lesen beklagt.,1772950664133,62,bekanntlich,filler-102-filler-list1,28,filler,"Wie wahrscheinlich ist es, dass du die empfohlene Handlung dann auch tatsächlich umsetzt?",,9,1,0,9,102,Bachelor,100,leselicht,1,,31,Beim Lesen schont,,631f2951646392c69506e361,random_filler,198876,true,69aca37e417992637b6ed8da,9659,"Wie stark hast du den Eindruck, dass die Sprecherin möchte, dass du ihre Empfehlung befolgst?",dir eine bessere Leselampe anschaffen,9659,1772950465257
3612,false,5,,Deutsch,critical,low,89,15,true,entscheidend für die kognitive Leistungsfähigkeit.,69ad13bc107bead9257c5368,"Dein/e Gesprächspartner/in spricht mit dir über Gesundheit und Wohlbefinden. In eurem gemeinsamen Umfeld teilen die meisten die Ansicht, dass ausreichend Schlaf entscheidend für die kognitive Leistungsfähigkeit ist.",1772950664133,15,bekanntlich,critical-5-c1-list1,28,high,"Wie wahrscheinlich ist es, dass du die empfohlene Handlung dann auch tatsächlich umsetzt?",low,10,1,0,10,5,Bachelor,100,schlaf,1,high,89,Ausreichend Schlaf ist,1,631f2951646392c69506e361,comprehension_marker_assignment_balanced.csv,198876,false,69aca37e417992637b6ed8da,5930,"Wie stark hast du den Eindruck, dass die Sprecherin möchte, dass du ihre Empfehlung befolgst?",auf feste Schlafzeiten achten,5930,1772950465257
3612,false,1,,Deutsch,critical,low,42,66,true,durch menschliche Aktivitäten verursacht.,69ad13bc107bead9257c5368,"Dein/e Gesprächspartner/in spricht mit dir über den Klimawandel. In eurem gemeinsamen Umfeld teilen die meisten die Ansicht, dass der Klimawandel durch menschliche Aktivitäten verursacht wird.",1772950664133,66,bekanntlich,critical-1-c1-list1,28,high,"Wie wahrscheinlich ist es, dass du die empfohlene Handlung dann auch tatsächlich umsetzt?",low,11,1,0,11,1,Bachelor,100,klimawandel,1,high,42,Der Klimawandel wird,1,631f2951646392c69506e361,comprehension_marker_assignment_balanced.csv,198876,false,69aca37e417992637b6ed8da,6283,"Wie stark hast du den Eindruck, dass die Sprecherin möchte, dass du ihre Empfehlung befolgst?",auf Flugreisen verzichten,6283,1772950465257
3612,false,106,,Deutsch,filler,filler,97,20,false,die Konzentrationsfähigkeit.,69ad13bc107bead9257c5368,"Dein/e Gesprächspartner/in spricht mit dir. Du hast erwähnt, dass du dich nachmittags immer schlapp und unkonzentriert fühlst.",1772950664133,20,bekanntlich,filler-106-filler-list1,28,filler,"Wie wahrscheinlich ist es, dass du die empfohlene Handlung dann auch tatsächlich umsetzt?",,12,1,0,12,106,Bachelor,100,trinken,1,,97,Genügend Wasser zu trinken verbessert,,631f2951646392c69506e361,random_filler,198876,true,69aca37e417992637b6ed8da,6837,"Wie stark hast du den Eindruck, dass die Sprecherin möchte, dass du ihre Empfehlung befolgst?",öfter ein Glas Wasser trinken,6837,1772950465257
3612,false,2,,Deutsch,critical,high,46,56,true,die Gesundheit.,69ad13bc107bead9257c5368,Dein/e Gesprächspartner/in spricht mit dir über Ernährungsgewohnheiten. In eurem gemeinsamen Umfeld herrschen dazu sehr unterschiedliche Meinungen.,1772950664133,56,soviel ich weiß,critical-2-c2-list1,28,low,"Wie wahrscheinlich ist es, dass du die empfohlene Handlung dann auch tatsächlich umsetzt?",high,13,1,0,13,2,Bachelor,100,ernaehrung,1,low,46,Eine überwiegend pflanzliche Ernährung fördert,2,631f2951646392c69506e361,comprehension_marker_assignment_balanced.csv,198876,false,69aca37e417992637b6ed8da,7433,"Wie stark hast du den Eindruck, dass die Sprecherin möchte, dass du ihre Empfehlung befolgst?",mehr pflanzliche Lebensmittel in deinen Alltag einbauen,7433,1772950465257
3612,false,105,,Deutsch,filler,filler,91,88,false,der mentalen Gesundheit gut.,69ad13bc107bead9257c5368,Dein/e Gesprächspartner/in spricht mit dir über Arbeit und Erholung. Du arbeitest seit Monaten ohne Urlaub durch und bist erschöpft.,1772950664133,88,ja,filler-105-filler-list1,28,filler,"Wie wahrscheinlich ist es, dass du die empfohlene Handlung dann auch tatsächlich umsetzt?",,14,1,0,14,105,Bachelor,100,urlaub,1,,91,Regelmäßige Auszeiten tun,,631f2951646392c69506e361,random_filler,198876,true,69aca37e417992637b6ed8da,8713,"Wie stark hast du den Eindruck, dass die Sprecherin möchte, dass du ihre Empfehlung befolgst?",dieses Jahr endlich Urlaub nehmen,8713,1772950465257
3612,false,108,,Deutsch,filler,filler,40,40,false,auf Dauer das Gehör.,69ad13bc107bead9257c5368,Dein/e Gesprächspartner/in spricht mit dir über Hörgewohnheiten. Du hörst ständig mit voller Lautstärke Musik über Kopfhörer.,1772950664133,40,ja,filler-108-filler-list1,28,filler,"Wie wahrscheinlich ist es, dass du die empfohlene Handlung dann auch tatsächlich umsetzt?",,15,1,0,15,108,Bachelor,100,laerm,1,,40,Laute Musik in Kopfhörern schädigt,,631f2951646392c69506e361,random_filler,198876,true,69aca37e417992637b6ed8da,6822,"Wie stark hast du den Eindruck, dass die Sprecherin möchte, dass du ihre Empfehlung befolgst?",die Lautstärke beim Musikhören reduzieren,6822,1772950465257
3612,false,104,,Deutsch,filler,filler,90,11,false,"vielen Menschen, wach zu werden.",69ad13bc107bead9257c5368,"Dein/e Gesprächspartner/in spricht mit dir an der Kaffeemaschine im Büro. Du hast erzählt, dass du morgens immer sehr müde bist.",1772950664133,11,ja,filler-104-filler-list1,28,filler,"Wie wahrscheinlich ist es, dass du die empfohlene Handlung dann auch tatsächlich umsetzt?",,16,1,0,16,104,Bachelor,100,kaffee,1,,90,Ein Kaffee am Morgen hilft,,631f2951646392c69506e361,random_filler,198876,true,69aca37e417992637b6ed8da,6695,"Wie stark hast du den Eindruck, dass die Sprecherin möchte, dass du ihre Empfehlung befolgst?",morgens eine kleine Kaffeepause einplanen,6695,1772950465257
3613,true,training,,Deutsch,training,low,100,100,false,"im Arbeitsalltag, konzentriert zu bleiben.",69ad139ca47973d996dfed1c,"Stell dir vor, ein Freund spricht mit dir über den Arbeitsalltag. In eurem Umfeld sehen die meisten das ähnlich: regelmäßige Pausen helfen dabei, sich besser zu konzentrieren.",1772950715025,100,ja,training,38,high,"Wie wahrscheinlich ist es, dass du die empfohlene Handlung dann auch tatsächlich umsetzt?",low,0,1,0,0,training,Abitur,100,training,2,high,100,Regelmäßige Pausen helfen,,5cb19af6c642510015463de2,manual_training,284286,false,69aca37e417992637b6ed8da,43319,"Wie stark hast du den Eindruck, dass die Sprecherin möchte, dass du ihre Empfehlung befolgst?",heute bewusst kurze Pausen einplanen,35632,1772950430739
3613,false,106,,Deutsch,filler,filler,100,100,false,die Konzentrationsfähigkeit.,69ad139ca47973d996dfed1c,"Dein/e Gesprächspartner/in spricht mit dir. Du hast erwähnt, dass du dich nachmittags immer schlapp und unkonzentriert fühlst.",1772950715025,100,soviel ich weiß,filler-106-filler-list2,38,filler,"Wie wahrscheinlich ist es, dass du die empfohlene Handlung dann auch tatsächlich umsetzt?",,1,1,0,1,106,Abitur,100,trinken,2,,100,Genügend Wasser zu trinken verbessert,,5cb19af6c642510015463de2,random_filler,284286,true,69aca37e417992637b6ed8da,21384,"Wie stark hast du den Eindruck, dass die Sprecherin möchte, dass du ihre Empfehlung befolgst?",öfter ein Glas Wasser trinken,21384,1772950430739
3613,false,8,,Deutsch,critical,low,78,76,true,die regionale Wirtschaft nachhaltig.,69ad139ca47973d996dfed1c,"Dein/e Gesprächspartner/in spricht mit dir über Einkaufsgewohnheiten. In eurem gemeinsamen Umfeld teilen die meisten die Überzeugung, dass der Einkauf bei lokalen Händlern die regionale Wirtschaft nachhaltig stärkt.",1772950715025,76,bekanntlich,critical-8-c1-list2,38,high,"Wie wahrscheinlich ist es, dass du die empfohlene Handlung dann auch tatsächlich umsetzt?",low,2,1,0,2,8,Abitur,100,lokalkauf,2,high,78,Der Einkauf bei lokalen Händlern stärkt,1,5cb19af6c642510015463de2,comprehension_marker_assignment_balanced.csv,284286,false,69aca37e417992637b6ed8da,31591,"Wie stark hast du den Eindruck, dass die Sprecherin möchte, dass du ihre Empfehlung befolgst?",öfter bei lokalen Geschäften einkaufen,31591,1772950430739
3613,false,3,,Deutsch,critical,low,50,51,true,den Stadtverkehr erheblich.,69ad139ca47973d996dfed1c,"Dein/e Gesprächspartner/in spricht mit dir über Verkehrspolitik in eurer Stadt. In eurem gemeinsamen Umfeld sehen das die meisten ähnlich, dass ein ausgebautes Nahverkehrsnetz den Stadtverkehr erheblich entlastet.",1772950715025,51,soviel ich weiß,critical-3-c0-list2,38,low,"Wie wahrscheinlich ist es, dass du die empfohlene Handlung dann auch tatsächlich umsetzt?",low,3,1,0,3,3,Abitur,100,stadtverkehr,2,low,50,Ein ausgebautes Nahverkehrsnetz entlastet,0,5cb19af6c642510015463de2,comprehension_marker_assignment_balanced.csv,284286,false,69aca37e417992637b6ed8da,29128,"Wie stark hast du den Eindruck, dass die Sprecherin möchte, dass du ihre Empfehlung befolgst?",häufiger auf öffentliche Verkehrsmittel umsteigen,29128,1772950430739
3613,false,7,,Deutsch,critical,low,73,100,true,das Risiko für Herz-Kreislauf-Erkrankungen deutlich.,69ad139ca47973d996dfed1c,"Dein/e Gesprächspartner/in spricht mit dir über gesunden Lebensstil. In eurem gemeinsamen Umfeld teilen die meisten die Ansicht, dass regelmäßige körperliche Bewegung das Risiko für Herz-Kreislauf-Erkrankungen deutlich senkt.",1772950715025,100,ja,critical-7-c0-list2,38,low,"Wie wahrscheinlich ist es, dass du die empfohlene Handlung dann auch tatsächlich umsetzt?",low,4,1,0,4,7,Abitur,100,sport,2,low,73,Regelmäßige körperliche Bewegung senkt,0,5cb19af6c642510015463de2,comprehension_marker_assignment_balanced.csv,284286,false,69aca37e417992637b6ed8da,13984,"Wie stark hast du den Eindruck, dass die Sprecherin möchte, dass du ihre Empfehlung befolgst?",regelmäßig Sport in deinen Alltag integrieren,13984,1772950430739
3613,false,103,,Deutsch,filler,filler,100,100,false,im Vergleich zu Fertiggerichten Geld.,69ad139ca47973d996dfed1c,"Dein/e Gesprächspartner/in spricht mit dir über den Ernährungsalltag. Du hast erwähnt, dass dein Geld für Essen kaum reicht.",1772950715025,100,soviel ich weiß,filler-103-filler-list2,38,filler,"Wie wahrscheinlich ist es, dass du die empfohlene Handlung dann auch tatsächlich umsetzt?",,5,1,0,5,103,Abitur,100,kochen,2,,100,Frisch Kochen spart,,5cb19af6c642510015463de2,random_filler,284286,true,69aca37e417992637b6ed8da,9928,"Wie stark hast du den Eindruck, dass die Sprecherin möchte, dass du ihre Empfehlung befolgst?",öfter selbst kochen,9928,1772950430739
3613,false,1,,Deutsch,critical,high,50,51,true,durch menschliche Aktivitäten verursacht.,69ad139ca47973d996dfed1c,Dein/e Gesprächspartner/in spricht mit dir über den Klimawandel. In eurem gemeinsamen Umfeld gehen die Meinungen dazu allerdings stark auseinander.,1772950715025,51,ja,critical-1-c2-list2,38,low,"Wie wahrscheinlich ist es, dass du die empfohlene Handlung dann auch tatsächlich umsetzt?",high,6,1,0,6,1,Abitur,100,klimawandel,2,low,50,Der Klimawandel wird,2,5cb19af6c642510015463de2,comprehension_marker_assignment_balanced.csv,284286,false,69aca37e417992637b6ed8da,14664,"Wie stark hast du den Eindruck, dass die Sprecherin möchte, dass du ihre Empfehlung befolgst?",auf Flugreisen verzichten,14664,1772950430739
3613,false,6,,Deutsch,critical,high,100,100,true,den Meeresökosystemen erheblich.,69ad139ca47973d996dfed1c,Dein/e Gesprächspartner/in spricht mit dir über Umweltschutz. In eurem gemeinsamen Umfeld herrschen dazu sehr unterschiedliche Meinungen.,1772950715025,100,ja,critical-6-c3-list2,38,high,"Wie wahrscheinlich ist es, dass du die empfohlene Handlung dann auch tatsächlich umsetzt?",high,7,1,0,7,6,Abitur,100,plastik,2,high,100,Einwegplastik schadet,3,5cb19af6c642510015463de2,comprehension_marker_assignment_balanced.csv,284286,false,69aca37e417992637b6ed8da,7848,"Wie stark hast du den Eindruck, dass die Sprecherin möchte, dass du ihre Empfehlung befolgst?",konsequent auf Einwegplastik verzichten,7848,1772950430739
3613,false,101,,Deutsch,filler,filler,53,100,false,für Reisen innerhalb Deutschlands sehr praktisch.,69ad139ca47973d996dfed1c,"Dein/e Gesprächspartner/in spricht mit dir über Reisemöglichkeiten in Deutschland. Ihr überlegt, wie man umweltfreundlich von München nach Hamburg kommen kann.",1772950715025,100,bekanntlich,filler-101-filler-list2,38,filler,"Wie wahrscheinlich ist es, dass du die empfohlene Handlung dann auch tatsächlich umsetzt?",,8,1,0,8,101,Abitur,100,bahn,2,,53,Der Zug ist,,5cb19af6c642510015463de2,random_filler,284286,true,69aca37e417992637b6ed8da,16840,"Wie stark hast du den Eindruck, dass die Sprecherin möchte, dass du ihre Empfehlung befolgst?",häufiger mit der Bahn reisen,16840,1772950430739
3613,false,105,,Deutsch,filler,filler,100,100,false,der mentalen Gesundheit gut.,69ad139ca47973d996dfed1c,Dein/e Gesprächspartner/in spricht mit dir über Arbeit und Erholung. Du arbeitest seit Monaten ohne Urlaub durch und bist erschöpft.,1772950715025,100,ja,filler-105-filler-list2,38,filler,"Wie wahrscheinlich ist es, dass du die empfohlene Handlung dann auch tatsächlich umsetzt?",,9,1,0,9,105,Abitur,100,urlaub,2,,100,Regelmäßige Auszeiten tun,,5cb19af6c642510015463de2,random_filler,284286,true,69aca37e417992637b6ed8da,8672,"Wie stark hast du den Eindruck, dass die Sprecherin möchte, dass du ihre Empfehlung befolgst?",dieses Jahr endlich Urlaub nehmen,8672,1772950430739
3613,false,107,,Deutsch,filler,filler,96,100,false,die Luftqualität merklich.,69ad139ca47973d996dfed1c,"Dein/e Gesprächspartner/in spricht mit dir in eurem schlecht belüfteten Großraumbüro. Du hast erwähnt, dass du dich dort häufig unwohl fühlst.",1772950715025,100,ja,filler-107-filler-list2,38,filler,"Wie wahrscheinlich ist es, dass du die empfohlene Handlung dann auch tatsächlich umsetzt?",,10,1,0,10,107,Abitur,100,frischluft,2,,96,Regelmäßiges Lüften verbessert,,5cb19af6c642510015463de2,random_filler,284286,true,69aca37e417992637b6ed8da,9840,"Wie stark hast du den Eindruck, dass die Sprecherin möchte, dass du ihre Empfehlung befolgst?",dein Büro öfter lüften,9840,1772950430739
3613,false,4,,Deutsch,critical,low,85,100,true,in der heutigen Arbeitswelt unverzichtbar.,69ad139ca47973d996dfed1c,"Dein/e Gesprächspartner/in spricht mit dir über Berufsausbildung und Weiterbildung. In eurem gemeinsamen Umfeld teilen die meisten die Ansicht, dass digitale Kompetenzen in der heutigen Arbeitswelt unverzichtbar sind.",1772950715025,100,bekanntlich,critical-4-c1-list2,38,high,"Wie wahrscheinlich ist es, dass du die empfohlene Handlung dann auch tatsächlich umsetzt?",low,11,1,0,11,4,Abitur,100,digitalisierung,2,high,85,Digitale Kompetenzen sind,1,5cb19af6c642510015463de2,comprehension_marker_assignment_balanced.csv,284286,false,69aca37e417992637b6ed8da,12856,"Wie stark hast du den Eindruck, dass die Sprecherin möchte, dass du ihre Empfehlung befolgst?",regelmäßig digitale Weiterbildungsangebote nutzen,12856,1772950430739
3613,false,102,,Deutsch,filler,filler,83,100,false,gutes Licht die Augen.,69ad139ca47973d996dfed1c,Dein/e Gesprächspartner/in spricht mit dir über Lesegewohnheiten. Du hast dich über Kopfschmerzen beim Lesen beklagt.,1772950715025,100,soviel ich weiß,filler-102-filler-list2,38,filler,"Wie wahrscheinlich ist es, dass du die empfohlene Handlung dann auch tatsächlich umsetzt?",,12,1,0,12,102,Abitur,100,leselicht,2,,83,Beim Lesen schont,,5cb19af6c642510015463de2,random_filler,284286,true,69aca37e417992637b6ed8da,10720,"Wie stark hast du den Eindruck, dass die Sprecherin möchte, dass du ihre Empfehlung befolgst?",dir eine bessere Leselampe anschaffen,10720,1772950430739
3613,false,5,,Deutsch,critical,high,86,100,true,entscheidend für die kognitive Leistungsfähigkeit.,69ad139ca47973d996dfed1c,Dein/e Gesprächspartner/in spricht mit dir über Gesundheit und Wohlbefinden. In eurem gemeinsamen Umfeld gehen die Meinungen dazu stark auseinander.,1772950715025,100,ja,critical-5-c2-list2,38,low,"Wie wahrscheinlich ist es, dass du die empfohlene Handlung dann auch tatsächlich umsetzt?",high,13,1,0,13,5,Abitur,100,schlaf,2,low,86,Ausreichend Schlaf ist,2,5cb19af6c642510015463de2,comprehension_marker_assignment_balanced.csv,284286,false,69aca37e417992637b6ed8da,10152,"Wie stark hast du den Eindruck, dass die Sprecherin möchte, dass du ihre Empfehlung befolgst?",auf feste Schlafzeiten achten,10152,1772950430739
3613,false,104,,Deutsch,filler,filler,0,100,false,"vielen Menschen, wach zu werden.",69ad139ca47973d996dfed1c,"Dein/e Gesprächspartner/in spricht mit dir an der Kaffeemaschine im Büro. Du hast erzählt, dass du morgens immer sehr müde bist.",1772950715025,100,soviel ich weiß,filler-104-filler-list2,38,filler,"Wie wahrscheinlich ist es, dass du die empfohlene Handlung dann auch tatsächlich umsetzt?",,14,1,0,14,104,Abitur,100,kaffee,2,,0,Ein Kaffee am Morgen hilft,,5cb19af6c642510015463de2,random_filler,284286,true,69aca37e417992637b6ed8da,10592,"Wie stark hast du den Eindruck, dass die Sprecherin möchte, dass du ihre Empfehlung befolgst?",morgens eine kleine Kaffeepause einplanen,10592,1772950430739
3613,false,108,,Deutsch,filler,filler,92,100,false,auf Dauer das Gehör.,69ad139ca47973d996dfed1c,Dein/e Gesprächspartner/in spricht mit dir über Hörgewohnheiten. Du hörst ständig mit voller Lautstärke Musik über Kopfhörer.,1772950715025,100,soviel ich weiß,filler-108-filler-list2,38,filler,"Wie wahrscheinlich ist es, dass du die empfohlene Handlung dann auch tatsächlich umsetzt?",,15,1,0,15,108,Abitur,100,laerm,2,,92,Laute Musik in Kopfhörern schädigt,,5cb19af6c642510015463de2,random_filler,284286,true,69aca37e417992637b6ed8da,9160,"Wie stark hast du den Eindruck, dass die Sprecherin möchte, dass du ihre Empfehlung befolgst?",die Lautstärke beim Musikhören reduzieren,9160,1772950430739
3613,false,2,,Deutsch,critical,high,93,100,true,die Gesundheit.,69ad139ca47973d996dfed1c,Dein/e Gesprächspartner/in spricht mit dir über Ernährungsgewohnheiten. In eurem gemeinsamen Umfeld herrschen dazu sehr unterschiedliche Meinungen.,1772950715025,100,soviel ich weiß,critical-2-c3-list2,38,high,"Wie wahrscheinlich ist es, dass du die empfohlene Handlung dann auch tatsächlich umsetzt?",high,16,1,0,16,2,Abitur,100,ernaehrung,2,high,93,Eine überwiegend pflanzliche Ernährung fördert,3,5cb19af6c642510015463de2,comprehension_marker_assignment_balanced.csv,284286,false,69aca37e417992637b6ed8da,6176,"Wie stark hast du den Eindruck, dass die Sprecherin möchte, dass du ihre Empfehlung befolgst?",mehr pflanzliche Lebensmittel in deinen Alltag einbauen,6176,1772950430739
3614,true,training,,deutsch,training,low,73,83,false,"im Arbeitsalltag, konzentriert zu bleiben.",69ad1661eeb2031de8f1417d,"Stell dir vor, ein Freund spricht mit dir über den Arbeitsalltag. In eurem Umfeld sehen die meisten das ähnlich: regelmäßige Pausen helfen dabei, sich besser zu konzentrieren.",1772951708927,83,ja,training,37,high,"Wie wahrscheinlich ist es, dass du die empfohlene Handlung dann auch tatsächlich umsetzt?",low,0,1,0,0,training,Bachelor,100,training,1,high,73,Regelmäßige Pausen helfen,,5aad4225811b2000016f6ed1,manual_training,562042,false,69aca37e417992637b6ed8da,27892,"Wie stark hast du den Eindruck, dass die Sprecherin möchte, dass du ihre Empfehlung befolgst?",heute bewusst kurze Pausen einplanen,25734,1772951146885
3614,false,1,,deutsch,critical,low,38,71,true,durch menschliche Aktivitäten verursacht.,69ad1661eeb2031de8f1417d,"Dein/e Gesprächspartner/in spricht mit dir über den Klimawandel. In eurem gemeinsamen Umfeld teilen die meisten die Ansicht, dass der Klimawandel durch menschliche Aktivitäten verursacht wird.",1772951708927,71,bekanntlich,critical-1-c1-list1,37,high,"Wie wahrscheinlich ist es, dass du die empfohlene Handlung dann auch tatsächlich umsetzt?",low,1,1,0,1,1,Bachelor,100,klimawandel,1,high,38,Der Klimawandel wird,1,5aad4225811b2000016f6ed1,comprehension_marker_assignment_balanced.csv,562042,false,69aca37e417992637b6ed8da,18813,"Wie stark hast du den Eindruck, dass die Sprecherin möchte, dass du ihre Empfehlung befolgst?",auf Flugreisen verzichten,18813,1772951146885
3614,false,3,,deutsch,critical,high,57,78,true,den Stadtverkehr erheblich.,69ad1661eeb2031de8f1417d,Dein/e Gesprächspartner/in spricht mit dir über Verkehrspolitik in eurer Stadt. In eurem gemeinsamen Umfeld gehen die Meinungen dazu weit auseinander.,1772951708927,78,ja,critical-3-c3-list1,37,high,"Wie wahrscheinlich ist es, dass du die empfohlene Handlung dann auch tatsächlich umsetzt?",high,2,1,0,2,3,Bachelor,100,stadtverkehr,1,high,57,Ein ausgebautes Nahverkehrsnetz entlastet,3,5aad4225811b2000016f6ed1,comprehension_marker_assignment_balanced.csv,562042,false,69aca37e417992637b6ed8da,9271,"Wie stark hast du den Eindruck, dass die Sprecherin möchte, dass du ihre Empfehlung befolgst?",häufiger auf öffentliche Verkehrsmittel umsteigen,9271,1772951146885
3614,false,107,,deutsch,filler,filler,91,87,false,die Luftqualität merklich.,69ad1661eeb2031de8f1417d,"Dein/e Gesprächspartner/in spricht mit dir in eurem schlecht belüfteten Großraumbüro. Du hast erwähnt, dass du dich dort häufig unwohl fühlst.",1772951708927,87,bekanntlich,filler-107-filler-list1,37,filler,"Wie wahrscheinlich ist es, dass du die empfohlene Handlung dann auch tatsächlich umsetzt?",,3,1,0,3,107,Bachelor,100,frischluft,1,,91,Regelmäßiges Lüften verbessert,,5aad4225811b2000016f6ed1,random_filler,562042,true,69aca37e417992637b6ed8da,9599,"Wie stark hast du den Eindruck, dass die Sprecherin möchte, dass du ihre Empfehlung befolgst?",dein Büro öfter lüften,9599,1772951146885
3614,false,108,,deutsch,filler,filler,79,62,false,auf Dauer das Gehör.,69ad1661eeb2031de8f1417d,Dein/e Gesprächspartner/in spricht mit dir über Hörgewohnheiten. Du hörst ständig mit voller Lautstärke Musik über Kopfhörer.,1772951708927,62,bekanntlich,filler-108-filler-list1,37,filler,"Wie wahrscheinlich ist es, dass du die empfohlene Handlung dann auch tatsächlich umsetzt?",,4,1,0,4,108,Bachelor,100,laerm,1,,79,Laute Musik in Kopfhörern schädigt,,5aad4225811b2000016f6ed1,random_filler,562042,true,69aca37e417992637b6ed8da,7435,"Wie stark hast du den Eindruck, dass die Sprecherin möchte, dass du ihre Empfehlung befolgst?",die Lautstärke beim Musikhören reduzieren,7435,1772951146885
3614,false,8,,deutsch,critical,low,40,68,true,die regionale Wirtschaft nachhaltig.,69ad1661eeb2031de8f1417d,"Dein/e Gesprächspartner/in spricht mit dir über Einkaufsgewohnheiten. In eurem gemeinsamen Umfeld teilen die meisten die Überzeugung, dass der Einkauf bei lokalen Händlern die regionale Wirtschaft nachhaltig stärkt.",1772951708927,68,soviel ich weiß,critical-8-c0-list1,37,low,"Wie wahrscheinlich ist es, dass du die empfohlene Handlung dann auch tatsächlich umsetzt?",low,5,1,0,5,8,Bachelor,100,lokalkauf,1,low,40,Der Einkauf bei lokalen Händlern stärkt,0,5aad4225811b2000016f6ed1,comprehension_marker_assignment_balanced.csv,562042,false,69aca37e417992637b6ed8da,10588,"Wie stark hast du den Eindruck, dass die Sprecherin möchte, dass du ihre Empfehlung befolgst?",öfter bei lokalen Geschäften einkaufen,10588,1772951146885
3614,false,104,,deutsch,filler,filler,29,63,false,"vielen Menschen, wach zu werden.",69ad1661eeb2031de8f1417d,"Dein/e Gesprächspartner/in spricht mit dir an der Kaffeemaschine im Büro. Du hast erzählt, dass du morgens immer sehr müde bist.",1772951708927,63,ja,filler-104-filler-list1,37,filler,"Wie wahrscheinlich ist es, dass du die empfohlene Handlung dann auch tatsächlich umsetzt?",,6,1,0,6,104,Bachelor,100,kaffee,1,,29,Ein Kaffee am Morgen hilft,,5aad4225811b2000016f6ed1,random_filler,562042,true,69aca37e417992637b6ed8da,7642,"Wie stark hast du den Eindruck, dass die Sprecherin möchte, dass du ihre Empfehlung befolgst?",morgens eine kleine Kaffeepause einplanen,7642,1772951146885
3614,false,4,,deutsch,critical,low,70,70,true,in der heutigen Arbeitswelt unverzichtbar.,69ad1661eeb2031de8f1417d,"Dein/e Gesprächspartner/in spricht mit dir über Berufsausbildung und Weiterbildung. In eurem gemeinsamen Umfeld teilen die meisten die Ansicht, dass digitale Kompetenzen in der heutigen Arbeitswelt unverzichtbar sind.",1772951708927,70,ja,critical-4-c0-list1,37,low,"Wie wahrscheinlich ist es, dass du die empfohlene Handlung dann auch tatsächlich umsetzt?",low,7,1,0,7,4,Bachelor,100,digitalisierung,1,low,70,Digitale Kompetenzen sind,0,5aad4225811b2000016f6ed1,comprehension_marker_assignment_balanced.csv,562042,false,69aca37e417992637b6ed8da,9483,"Wie stark hast du den Eindruck, dass die Sprecherin möchte, dass du ihre Empfehlung befolgst?",regelmäßig digitale Weiterbildungsangebote nutzen,9484,1772951146885
3614,false,7,,deutsch,critical,high,79,63,true,das Risiko für Herz-Kreislauf-Erkrankungen deutlich.,69ad1661eeb2031de8f1417d,Dein/e Gesprächspartner/in spricht mit dir über gesunden Lebensstil. In eurem gemeinsamen Umfeld gehen die Meinungen dazu stark auseinander.,1772951708927,63,bekanntlich,critical-7-c3-list1,37,high,"Wie wahrscheinlich ist es, dass du die empfohlene Handlung dann auch tatsächlich umsetzt?",high,8,1,0,8,7,Bachelor,100,sport,1,high,79,Regelmäßige körperliche Bewegung senkt,3,5aad4225811b2000016f6ed1,comprehension_marker_assignment_balanced.csv,562042,false,69aca37e417992637b6ed8da,7007,"Wie stark hast du den Eindruck, dass die Sprecherin möchte, dass du ihre Empfehlung befolgst?",regelmäßig Sport in deinen Alltag integrieren,7007,1772951146885
3614,false,101,,deutsch,filler,filler,33,79,false,für Reisen innerhalb Deutschlands sehr praktisch.,69ad1661eeb2031de8f1417d,"Dein/e Gesprächspartner/in spricht mit dir über Reisemöglichkeiten in Deutschland. Ihr überlegt, wie man umweltfreundlich von München nach Hamburg kommen kann.",1772951708927,79,soviel ich weiß,filler-101-filler-list1,37,filler,"Wie wahrscheinlich ist es, dass du die empfohlene Handlung dann auch tatsächlich umsetzt?",,9,1,0,9,101,Bachelor,100,bahn,1,,33,Der Zug ist,,5aad4225811b2000016f6ed1,random_filler,562042,true,69aca37e417992637b6ed8da,5636,"Wie stark hast du den Eindruck, dass die Sprecherin möchte, dass du ihre Empfehlung befolgst?",häufiger mit der Bahn reisen,5637,1772951146885
3614,false,106,,deutsch,filler,filler,73,82,false,die Konzentrationsfähigkeit.,69ad1661eeb2031de8f1417d,"Dein/e Gesprächspartner/in spricht mit dir. Du hast erwähnt, dass du dich nachmittags immer schlapp und unkonzentriert fühlst.",1772951708927,82,ja,filler-106-filler-list1,37,filler,"Wie wahrscheinlich ist es, dass du die empfohlene Handlung dann auch tatsächlich umsetzt?",,10,1,0,10,106,Bachelor,100,trinken,1,,73,Genügend Wasser zu trinken verbessert,,5aad4225811b2000016f6ed1,random_filler,562042,true,69aca37e417992637b6ed8da,4644,"Wie stark hast du den Eindruck, dass die Sprecherin möchte, dass du ihre Empfehlung befolgst?",öfter ein Glas Wasser trinken,4644,1772951146885
3614,false,6,,deutsch,critical,high,92,68,true,den Meeresökosystemen erheblich.,69ad1661eeb2031de8f1417d,Dein/e Gesprächspartner/in spricht mit dir über Umweltschutz. In eurem gemeinsamen Umfeld herrschen dazu sehr unterschiedliche Meinungen.,1772951708927,68,ja,critical-6-c2-list1,37,low,"Wie wahrscheinlich ist es, dass du die empfohlene Handlung dann auch tatsächlich umsetzt?",high,11,1,0,11,6,Bachelor,100,plastik,1,low,92,Einwegplastik schadet,2,5aad4225811b2000016f6ed1,comprehension_marker_assignment_balanced.csv,562042,false,69aca37e417992637b6ed8da,5202,"Wie stark hast du den Eindruck, dass die Sprecherin möchte, dass du ihre Empfehlung befolgst?",konsequent auf Einwegplastik verzichten,5202,1772951146885
3614,false,105,,deutsch,filler,filler,16,42,false,der mentalen Gesundheit gut.,69ad1661eeb2031de8f1417d,Dein/e Gesprächspartner/in spricht mit dir über Arbeit und Erholung. Du arbeitest seit Monaten ohne Urlaub durch und bist erschöpft.,1772951708927,42,soviel ich weiß,filler-105-filler-list1,37,filler,"Wie wahrscheinlich ist es, dass du die empfohlene Handlung dann auch tatsächlich umsetzt?",,12,1,0,12,105,Bachelor,100,urlaub,1,,16,Regelmäßige Auszeiten tun,,5aad4225811b2000016f6ed1,random_filler,562042,true,69aca37e417992637b6ed8da,7550,"Wie stark hast du den Eindruck, dass die Sprecherin möchte, dass du ihre Empfehlung befolgst?",dieses Jahr endlich Urlaub nehmen,7550,1772951146885
3614,false,102,,deutsch,filler,filler,64,65,false,gutes Licht die Augen.,69ad1661eeb2031de8f1417d,Dein/e Gesprächspartner/in spricht mit dir über Lesegewohnheiten. Du hast dich über Kopfschmerzen beim Lesen beklagt.,1772951708927,65,soviel ich weiß,filler-102-filler-list1,37,filler,"Wie wahrscheinlich ist es, dass du die empfohlene Handlung dann auch tatsächlich umsetzt?",,13,1,0,13,102,Bachelor,100,leselicht,1,,64,Beim Lesen schont,,5aad4225811b2000016f6ed1,random_filler,562042,true,69aca37e417992637b6ed8da,7774,"Wie stark hast du den Eindruck, dass die Sprecherin möchte, dass du ihre Empfehlung befolgst?",dir eine bessere Leselampe anschaffen,7774,1772951146885
3614,false,5,,deutsch,critical,low,38,70,true,entscheidend für die kognitive Leistungsfähigkeit.,69ad1661eeb2031de8f1417d,"Dein/e Gesprächspartner/in spricht mit dir über Gesundheit und Wohlbefinden. In eurem gemeinsamen Umfeld teilen die meisten die Ansicht, dass ausreichend Schlaf entscheidend für die kognitive Leistungsfähigkeit ist.",1772951708927,70,bekanntlich,critical-5-c1-list1,37,high,"Wie wahrscheinlich ist es, dass du die empfohlene Handlung dann auch tatsächlich umsetzt?",low,14,1,0,14,5,Bachelor,100,schlaf,1,high,38,Ausreichend Schlaf ist,1,5aad4225811b2000016f6ed1,comprehension_marker_assignment_balanced.csv,562042,false,69aca37e417992637b6ed8da,8219,"Wie stark hast du den Eindruck, dass die Sprecherin möchte, dass du ihre Empfehlung befolgst?",auf feste Schlafzeiten achten,8219,1772951146885
3614,false,2,,deutsch,critical,high,71,61,true,die Gesundheit.,69ad1661eeb2031de8f1417d,Dein/e Gesprächspartner/in spricht mit dir über Ernährungsgewohnheiten. In eurem gemeinsamen Umfeld herrschen dazu sehr unterschiedliche Meinungen.,1772951708927,61,soviel ich weiß,critical-2-c2-list1,37,low,"Wie wahrscheinlich ist es, dass du die empfohlene Handlung dann auch tatsächlich umsetzt?",high,15,1,0,15,2,Bachelor,100,ernaehrung,1,low,71,Eine überwiegend pflanzliche Ernährung fördert,2,5aad4225811b2000016f6ed1,comprehension_marker_assignment_balanced.csv,562042,false,69aca37e417992637b6ed8da,5814,"Wie stark hast du den Eindruck, dass die Sprecherin möchte, dass du ihre Empfehlung befolgst?",mehr pflanzliche Lebensmittel in deinen Alltag einbauen,5814,1772951146885
3614,false,103,,deutsch,filler,filler,76,82,false,im Vergleich zu Fertiggerichten Geld.,69ad1661eeb2031de8f1417d,"Dein/e Gesprächspartner/in spricht mit dir über den Ernährungsalltag. Du hast erwähnt, dass dein Geld für Essen kaum reicht.",1772951708927,82,bekanntlich,filler-103-filler-list1,37,filler,"Wie wahrscheinlich ist es, dass du die empfohlene Handlung dann auch tatsächlich umsetzt?",,16,1,0,16,103,Bachelor,100,kochen,1,,76,Frisch Kochen spart,,5aad4225811b2000016f6ed1,random_filler,562042,true,69aca37e417992637b6ed8da,8025,"Wie stark hast du den Eindruck, dass die Sprecherin möchte, dass du ihre Empfehlung befolgst?",öfter selbst kochen,8025,1772951146885
3615,true,training,,Deutsch,training,low,40,72,false,"im Arbeitsalltag, konzentriert zu bleiben.",69ad1c9822757a38f83237e8,"Stell dir vor, ein Freund spricht mit dir über den Arbeitsalltag. In eurem Umfeld sehen die meisten das ähnlich: regelmäßige Pausen helfen dabei, sich besser zu konzentrieren.",1772953208784,72,ja,training,37,high,"Wie wahrscheinlich ist es, dass du die empfohlene Handlung dann auch tatsächlich umsetzt?",low,0,1,0,0,training,kein Abitur,100,training,0,high,40,Regelmäßige Pausen helfen,,6914e3b13ffce0a5afff20d3,manual_training,474616,false,69aca37e417992637b6ed8da,34649,"Wie stark hast du den Eindruck, dass die Sprecherin möchte, dass du ihre Empfehlung befolgst?",heute bewusst kurze Pausen einplanen,33447,1772952734168
3615,false,105,,Deutsch,filler,filler,60,76,false,der mentalen Gesundheit gut.,69ad1c9822757a38f83237e8,Dein/e Gesprächspartner/in spricht mit dir über Arbeit und Erholung. Du arbeitest seit Monaten ohne Urlaub durch und bist erschöpft.,1772953208784,76,ja,filler-105-filler-list0,37,filler,"Wie wahrscheinlich ist es, dass du die empfohlene Handlung dann auch tatsächlich umsetzt?",,1,1,0,1,105,kein Abitur,100,urlaub,0,,60,Regelmäßige Auszeiten tun,,6914e3b13ffce0a5afff20d3,random_filler,474616,true,69aca37e417992637b6ed8da,49038,"Wie stark hast du den Eindruck, dass die Sprecherin möchte, dass du ihre Empfehlung befolgst?",dieses Jahr endlich Urlaub nehmen,49038,1772952734168
3615,false,4,,Deutsch,critical,high,6,31,true,in der heutigen Arbeitswelt unverzichtbar.,69ad1c9822757a38f83237e8,Dein/e Gesprächspartner/in spricht mit dir über Berufsausbildung und Weiterbildung. In eurem gemeinsamen Umfeld gehen die Meinungen dazu stark auseinander.,1772953208784,31,bekanntlich,critical-4-c3-list0,37,high,"Wie wahrscheinlich ist es, dass du die empfohlene Handlung dann auch tatsächlich umsetzt?",high,2,1,0,2,4,kein Abitur,100,digitalisierung,0,high,6,Digitale Kompetenzen sind,3,6914e3b13ffce0a5afff20d3,comprehension_marker_assignment_balanced.csv,474616,false,69aca37e417992637b6ed8da,17908,"Wie stark hast du den Eindruck, dass die Sprecherin möchte, dass du ihre Empfehlung befolgst?",regelmäßig digitale Weiterbildungsangebote nutzen,17908,1772952734168
3615,false,8,,Deutsch,critical,high,36,68,true,die regionale Wirtschaft nachhaltig.,69ad1c9822757a38f83237e8,Dein/e Gesprächspartner/in spricht mit dir über Einkaufsgewohnheiten. In eurem gemeinsamen Umfeld gehen die Meinungen dazu weit auseinander.,1772953208784,68,soviel ich weiß,critical-8-c3-list0,37,high,"Wie wahrscheinlich ist es, dass du die empfohlene Handlung dann auch tatsächlich umsetzt?",high,3,1,0,3,8,kein Abitur,100,lokalkauf,0,high,36,Der Einkauf bei lokalen Händlern stärkt,3,6914e3b13ffce0a5afff20d3,comprehension_marker_assignment_balanced.csv,474616,false,69aca37e417992637b6ed8da,16784,"Wie stark hast du den Eindruck, dass die Sprecherin möchte, dass du ihre Empfehlung befolgst?",öfter bei lokalen Geschäften einkaufen,16784,1772952734168
3615,false,102,,Deutsch,filler,filler,80,86,false,gutes Licht die Augen.,69ad1c9822757a38f83237e8,Dein/e Gesprächspartner/in spricht mit dir über Lesegewohnheiten. Du hast dich über Kopfschmerzen beim Lesen beklagt.,1772953208784,86,bekanntlich,filler-102-filler-list0,37,filler,"Wie wahrscheinlich ist es, dass du die empfohlene Handlung dann auch tatsächlich umsetzt?",,4,1,0,4,102,kein Abitur,100,leselicht,0,,80,Beim Lesen schont,,6914e3b13ffce0a5afff20d3,random_filler,474616,true,69aca37e417992637b6ed8da,13738,"Wie stark hast du den Eindruck, dass die Sprecherin möchte, dass du ihre Empfehlung befolgst?",dir eine bessere Leselampe anschaffen,13738,1772952734168
3615,false,7,,Deutsch,critical,high,43,70,true,das Risiko für Herz-Kreislauf-Erkrankungen deutlich.,69ad1c9822757a38f83237e8,Dein/e Gesprächspartner/in spricht mit dir über gesunden Lebensstil. In eurem gemeinsamen Umfeld gehen die Meinungen dazu stark auseinander.,1772953208784,70,ja,critical-7-c2-list0,37,low,"Wie wahrscheinlich ist es, dass du die empfohlene Handlung dann auch tatsächlich umsetzt?",high,5,1,0,5,7,kein Abitur,100,sport,0,low,43,Regelmäßige körperliche Bewegung senkt,2,6914e3b13ffce0a5afff20d3,comprehension_marker_assignment_balanced.csv,474616,false,69aca37e417992637b6ed8da,14995,"Wie stark hast du den Eindruck, dass die Sprecherin möchte, dass du ihre Empfehlung befolgst?",regelmäßig Sport in deinen Alltag integrieren,14995,1772952734168
3615,false,5,,Deutsch,critical,low,81,89,true,entscheidend für die kognitive Leistungsfähigkeit.,69ad1c9822757a38f83237e8,"Dein/e Gesprächspartner/in spricht mit dir über Gesundheit und Wohlbefinden. In eurem gemeinsamen Umfeld teilen die meisten die Ansicht, dass ausreichend Schlaf entscheidend für die kognitive Leistungsfähigkeit ist.",1772953208784,89,soviel ich weiß,critical-5-c0-list0,37,low,"Wie wahrscheinlich ist es, dass du die empfohlene Handlung dann auch tatsächlich umsetzt?",low,6,1,0,6,5,kein Abitur,100,schlaf,0,low,81,Ausreichend Schlaf ist,0,6914e3b13ffce0a5afff20d3,comprehension_marker_assignment_balanced.csv,474616,false,69aca37e417992637b6ed8da,12580,"Wie stark hast du den Eindruck, dass die Sprecherin möchte, dass du ihre Empfehlung befolgst?",auf feste Schlafzeiten achten,12580,1772952734168
3615,false,3,,Deutsch,critical,high,38,78,true,den Stadtverkehr erheblich.,69ad1c9822757a38f83237e8,Dein/e Gesprächspartner/in spricht mit dir über Verkehrspolitik in eurer Stadt. In eurem gemeinsamen Umfeld gehen die Meinungen dazu weit auseinander.,1772953208784,78,soviel ich weiß,critical-3-c2-list0,37,low,"Wie wahrscheinlich ist es, dass du die empfohlene Handlung dann auch tatsächlich umsetzt?",high,7,1,0,7,3,kein Abitur,100,stadtverkehr,0,low,38,Ein ausgebautes Nahverkehrsnetz entlastet,2,6914e3b13ffce0a5afff20d3,comprehension_marker_assignment_balanced.csv,474616,false,69aca37e417992637b6ed8da,12575,"Wie stark hast du den Eindruck, dass die Sprecherin möchte, dass du ihre Empfehlung befolgst?",häufiger auf öffentliche Verkehrsmittel umsteigen,12575,1772952734168
3615,false,103,,Deutsch,filler,filler,32,64,false,im Vergleich zu Fertiggerichten Geld.,69ad1c9822757a38f83237e8,"Dein/e Gesprächspartner/in spricht mit dir über den Ernährungsalltag. Du hast erwähnt, dass dein Geld für Essen kaum reicht.",1772953208784,64,soviel ich weiß,filler-103-filler-list0,37,filler,"Wie wahrscheinlich ist es, dass du die empfohlene Handlung dann auch tatsächlich umsetzt?",,8,1,0,8,103,kein Abitur,100,kochen,0,,32,Frisch Kochen spart,,6914e3b13ffce0a5afff20d3,random_filler,474616,true,69aca37e417992637b6ed8da,9504,"Wie stark hast du den Eindruck, dass die Sprecherin möchte, dass du ihre Empfehlung befolgst?",öfter selbst kochen,9504,1772952734168
3615,false,106,,Deutsch,filler,filler,69,84,false,die Konzentrationsfähigkeit.,69ad1c9822757a38f83237e8,"Dein/e Gesprächspartner/in spricht mit dir. Du hast erwähnt, dass du dich nachmittags immer schlapp und unkonzentriert fühlst.",1772953208784,84,ja,filler-106-filler-list0,37,filler,"Wie wahrscheinlich ist es, dass du die empfohlene Handlung dann auch tatsächlich umsetzt?",,9,1,0,9,106,kein Abitur,100,trinken,0,,69,Genügend Wasser zu trinken verbessert,,6914e3b13ffce0a5afff20d3,random_filler,474616,true,69aca37e417992637b6ed8da,129164,"Wie stark hast du den Eindruck, dass die Sprecherin möchte, dass du ihre Empfehlung befolgst?",öfter ein Glas Wasser trinken,129164,1772952734168
3615,false,107,,Deutsch,filler,filler,70,88,false,die Luftqualität merklich.,69ad1c9822757a38f83237e8,"Dein/e Gesprächspartner/in spricht mit dir in eurem schlecht belüfteten Großraumbüro. Du hast erwähnt, dass du dich dort häufig unwohl fühlst.",1772953208784,88,ja,filler-107-filler-list0,37,filler,"Wie wahrscheinlich ist es, dass du die empfohlene Handlung dann auch tatsächlich umsetzt?",,10,1,0,10,107,kein Abitur,100,frischluft,0,,70,Regelmäßiges Lüften verbessert,,6914e3b13ffce0a5afff20d3,random_filler,474616,true,69aca37e417992637b6ed8da,68376,"Wie stark hast du den Eindruck, dass die Sprecherin möchte, dass du ihre Empfehlung befolgst?",dein Büro öfter lüften,68376,1772952734168
3615,false,104,,Deutsch,filler,filler,56,68,false,"vielen Menschen, wach zu werden.",69ad1c9822757a38f83237e8,"Dein/e Gesprächspartner/in spricht mit dir an der Kaffeemaschine im Büro. Du hast erzählt, dass du morgens immer sehr müde bist.",1772953208784,68,bekanntlich,filler-104-filler-list0,37,filler,"Wie wahrscheinlich ist es, dass du die empfohlene Handlung dann auch tatsächlich umsetzt?",,11,1,0,11,104,kein Abitur,100,kaffee,0,,56,Ein Kaffee am Morgen hilft,,6914e3b13ffce0a5afff20d3,random_filler,474616,true,69aca37e417992637b6ed8da,13053,"Wie stark hast du den Eindruck, dass die Sprecherin möchte, dass du ihre Empfehlung befolgst?",morgens eine kleine Kaffeepause einplanen,13053,1772952734168
3615,false,108,,Deutsch,filler,filler,32,20,false,auf Dauer das Gehör.,69ad1c9822757a38f83237e8,Dein/e Gesprächspartner/in spricht mit dir über Hörgewohnheiten. Du hörst ständig mit voller Lautstärke Musik über Kopfhörer.,1772953208784,20,bekanntlich,filler-108-filler-list0,37,filler,"Wie wahrscheinlich ist es, dass du die empfohlene Handlung dann auch tatsächlich umsetzt?",,12,1,0,12,108,kein Abitur,100,laerm,0,,32,Laute Musik in Kopfhörern schädigt,,6914e3b13ffce0a5afff20d3,random_filler,474616,true,69aca37e417992637b6ed8da,9845,"Wie stark hast du den Eindruck, dass die Sprecherin möchte, dass du ihre Empfehlung befolgst?",die Lautstärke beim Musikhören reduzieren,9845,1772952734168
3615,false,101,,Deutsch,filler,filler,33,76,false,für Reisen innerhalb Deutschlands sehr praktisch.,69ad1c9822757a38f83237e8,"Dein/e Gesprächspartner/in spricht mit dir über Reisemöglichkeiten in Deutschland. Ihr überlegt, wie man umweltfreundlich von München nach Hamburg kommen kann.",1772953208784,76,ja,filler-101-filler-list0,37,filler,"Wie wahrscheinlich ist es, dass du die empfohlene Handlung dann auch tatsächlich umsetzt?",,13,1,0,13,101,kein Abitur,100,bahn,0,,33,Der Zug ist,,6914e3b13ffce0a5afff20d3,random_filler,474616,true,69aca37e417992637b6ed8da,13239,"Wie stark hast du den Eindruck, dass die Sprecherin möchte, dass du ihre Empfehlung befolgst?",häufiger mit der Bahn reisen,13239,1772952734168
3615,false,2,,Deutsch,critical,low,22,62,true,die Gesundheit.,69ad1c9822757a38f83237e8,"Dein/e Gesprächspartner/in spricht mit dir über Ernährungsgewohnheiten. In eurem gemeinsamen Umfeld teilen die meisten die Überzeugung, dass eine überwiegend pflanzliche Ernährung die Gesundheit fördert.",1772953208784,62,bekanntlich,critical-2-c1-list0,37,high,"Wie wahrscheinlich ist es, dass du die empfohlene Handlung dann auch tatsächlich umsetzt?",low,14,1,0,14,2,kein Abitur,100,ernaehrung,0,high,22,Eine überwiegend pflanzliche Ernährung fördert,1,6914e3b13ffce0a5afff20d3,comprehension_marker_assignment_balanced.csv,474616,false,69aca37e417992637b6ed8da,14630,"Wie stark hast du den Eindruck, dass die Sprecherin möchte, dass du ihre Empfehlung befolgst?",mehr pflanzliche Lebensmittel in deinen Alltag einbauen,14630,1772952734168
3615,false,6,,Deutsch,critical,low,60,70,true,den Meeresökosystemen erheblich.,69ad1c9822757a38f83237e8,"Dein/e Gesprächspartner/in spricht mit dir über Umweltschutz. In eurem gemeinsamen Umfeld teilen die meisten die Überzeugung, dass Einwegplastik den Meeresökosystemen erheblich schadet.",1772953208784,70,bekanntlich,critical-6-c1-list0,37,high,"Wie wahrscheinlich ist es, dass du die empfohlene Handlung dann auch tatsächlich umsetzt?",low,15,1,0,15,6,kein Abitur,100,plastik,0,high,60,Einwegplastik schadet,1,6914e3b13ffce0a5afff20d3,comprehension_marker_assignment_balanced.csv,474616,false,69aca37e417992637b6ed8da,15021,"Wie stark hast du den Eindruck, dass die Sprecherin möchte, dass du ihre Empfehlung befolgst?",konsequent auf Einwegplastik verzichten,15021,1772952734168
3615,false,1,,Deutsch,critical,low,70,73,true,durch menschliche Aktivitäten verursacht.,69ad1c9822757a38f83237e8,"Dein/e Gesprächspartner/in spricht mit dir über den Klimawandel. In eurem gemeinsamen Umfeld teilen die meisten die Ansicht, dass der Klimawandel durch menschliche Aktivitäten verursacht wird.",1772953208784,73,ja,critical-1-c0-list0,37,low,"Wie wahrscheinlich ist es, dass du die empfohlene Handlung dann auch tatsächlich umsetzt?",low,16,1,0,16,1,kein Abitur,100,klimawandel,0,low,70,Der Klimawandel wird,0,6914e3b13ffce0a5afff20d3,comprehension_marker_assignment_balanced.csv,474616,false,69aca37e417992637b6ed8da,14364,"Wie stark hast du den Eindruck, dass die Sprecherin möchte, dass du ihre Empfehlung befolgst?",auf Flugreisen verzichten,14364,1772952734168
3616,true,training,,Deutsch,training,low,63,69,false,"im Arbeitsalltag, konzentriert zu bleiben.",69ad1e765212102f998b7602,"Stell dir vor, ein Freund spricht mit dir über den Arbeitsalltag. In eurem Umfeld sehen die meisten das ähnlich: regelmäßige Pausen helfen dabei, sich besser zu konzentrieren.",1772953556166,69,ja,training,48,high,"Wie wahrscheinlich ist es, dass du die empfohlene Handlung dann auch tatsächlich umsetzt?",low,0,1,0,0,training,Bachelor,100,training,2,high,63,Regelmäßige Pausen helfen,,603f47e39649cf0339527014,manual_training,340423,false,69aca37e417992637b6ed8da,21082,"Wie stark hast du den Eindruck, dass die Sprecherin möchte, dass du ihre Empfehlung befolgst?",heute bewusst kurze Pausen einplanen,19020,1772953215743
3616,false,107,,Deutsch,filler,filler,81,62,false,die Luftqualität merklich.,69ad1e765212102f998b7602,"Dein/e Gesprächspartner/in spricht mit dir in eurem schlecht belüfteten Großraumbüro. Du hast erwähnt, dass du dich dort häufig unwohl fühlst.",1772953556166,62,bekanntlich,filler-107-filler-list2,48,filler,"Wie wahrscheinlich ist es, dass du die empfohlene Handlung dann auch tatsächlich umsetzt?",,1,1,0,1,107,Bachelor,100,frischluft,2,,81,Regelmäßiges Lüften verbessert,,603f47e39649cf0339527014,random_filler,340423,true,69aca37e417992637b6ed8da,43876,"Wie stark hast du den Eindruck, dass die Sprecherin möchte, dass du ihre Empfehlung befolgst?",dein Büro öfter lüften,43877,1772953215743
3616,false,6,,Deutsch,critical,high,55,74,true,den Meeresökosystemen erheblich.,69ad1e765212102f998b7602,Dein/e Gesprächspartner/in spricht mit dir über Umweltschutz. In eurem gemeinsamen Umfeld herrschen dazu sehr unterschiedliche Meinungen.,1772953556166,74,ja,critical-6-c3-list2,48,high,"Wie wahrscheinlich ist es, dass du die empfohlene Handlung dann auch tatsächlich umsetzt?",high,2,1,0,2,6,Bachelor,100,plastik,2,high,55,Einwegplastik schadet,3,603f47e39649cf0339527014,comprehension_marker_assignment_balanced.csv,340423,false,69aca37e417992637b6ed8da,7951,"Wie stark hast du den Eindruck, dass die Sprecherin möchte, dass du ihre Empfehlung befolgst?",konsequent auf Einwegplastik verzichten,7951,1772953215743
3616,false,2,,Deutsch,critical,high,31,53,true,die Gesundheit.,69ad1e765212102f998b7602,Dein/e Gesprächspartner/in spricht mit dir über Ernährungsgewohnheiten. In eurem gemeinsamen Umfeld herrschen dazu sehr unterschiedliche Meinungen.,1772953556166,53,soviel ich weiß,critical-2-c3-list2,48,high,"Wie wahrscheinlich ist es, dass du die empfohlene Handlung dann auch tatsächlich umsetzt?",high,3,1,0,3,2,Bachelor,100,ernaehrung,2,high,31,Eine überwiegend pflanzliche Ernährung fördert,3,603f47e39649cf0339527014,comprehension_marker_assignment_balanced.csv,340423,false,69aca37e417992637b6ed8da,9886,"Wie stark hast du den Eindruck, dass die Sprecherin möchte, dass du ihre Empfehlung befolgst?",mehr pflanzliche Lebensmittel in deinen Alltag einbauen,9886,1772953215743
3616,false,103,,Deutsch,filler,filler,78,64,false,im Vergleich zu Fertiggerichten Geld.,69ad1e765212102f998b7602,"Dein/e Gesprächspartner/in spricht mit dir über den Ernährungsalltag. Du hast erwähnt, dass dein Geld für Essen kaum reicht.",1772953556166,64,bekanntlich,filler-103-filler-list2,48,filler,"Wie wahrscheinlich ist es, dass du die empfohlene Handlung dann auch tatsächlich umsetzt?",,4,1,0,4,103,Bachelor,100,kochen,2,,78,Frisch Kochen spart,,603f47e39649cf0339527014,random_filler,340423,true,69aca37e417992637b6ed8da,8518,"Wie stark hast du den Eindruck, dass die Sprecherin möchte, dass du ihre Empfehlung befolgst?",öfter selbst kochen,8518,1772953215743
3616,false,7,,Deutsch,critical,low,56,75,true,das Risiko für Herz-Kreislauf-Erkrankungen deutlich.,69ad1e765212102f998b7602,"Dein/e Gesprächspartner/in spricht mit dir über gesunden Lebensstil. In eurem gemeinsamen Umfeld teilen die meisten die Ansicht, dass regelmäßige körperliche Bewegung das Risiko für Herz-Kreislauf-Erkrankungen deutlich senkt.",1772953556166,75,ja,critical-7-c0-list2,48,low,"Wie wahrscheinlich ist es, dass du die empfohlene Handlung dann auch tatsächlich umsetzt?",low,5,1,0,5,7,Bachelor,100,sport,2,low,56,Regelmäßige körperliche Bewegung senkt,0,603f47e39649cf0339527014,comprehension_marker_assignment_balanced.csv,340423,false,69aca37e417992637b6ed8da,16155,"Wie stark hast du den Eindruck, dass die Sprecherin möchte, dass du ihre Empfehlung befolgst?",regelmäßig Sport in deinen Alltag integrieren,16155,1772953215743
3616,false,4,,Deutsch,critical,low,38,70,true,in der heutigen Arbeitswelt unverzichtbar.,69ad1e765212102f998b7602,"Dein/e Gesprächspartner/in spricht mit dir über Berufsausbildung und Weiterbildung. In eurem gemeinsamen Umfeld teilen die meisten die Ansicht, dass digitale Kompetenzen in der heutigen Arbeitswelt unverzichtbar sind.",1772953556166,70,bekanntlich,critical-4-c1-list2,48,high,"Wie wahrscheinlich ist es, dass du die empfohlene Handlung dann auch tatsächlich umsetzt?",low,6,1,0,6,4,Bachelor,100,digitalisierung,2,high,38,Digitale Kompetenzen sind,1,603f47e39649cf0339527014,comprehension_marker_assignment_balanced.csv,340423,false,69aca37e417992637b6ed8da,20654,"Wie stark hast du den Eindruck, dass die Sprecherin möchte, dass du ihre Empfehlung befolgst?",regelmäßig digitale Weiterbildungsangebote nutzen,20655,1772953215743
3616,false,105,,Deutsch,filler,filler,78,77,false,der mentalen Gesundheit gut.,69ad1e765212102f998b7602,Dein/e Gesprächspartner/in spricht mit dir über Arbeit und Erholung. Du arbeitest seit Monaten ohne Urlaub durch und bist erschöpft.,1772953556166,77,soviel ich weiß,filler-105-filler-list2,48,filler,"Wie wahrscheinlich ist es, dass du die empfohlene Handlung dann auch tatsächlich umsetzt?",,7,1,0,7,105,Bachelor,100,urlaub,2,,78,Regelmäßige Auszeiten tun,,603f47e39649cf0339527014,random_filler,340423,true,69aca37e417992637b6ed8da,12707,"Wie stark hast du den Eindruck, dass die Sprecherin möchte, dass du ihre Empfehlung befolgst?",dieses Jahr endlich Urlaub nehmen,12707,1772953215743
3616,false,3,,Deutsch,critical,low,61,84,true,den Stadtverkehr erheblich.,69ad1e765212102f998b7602,"Dein/e Gesprächspartner/in spricht mit dir über Verkehrspolitik in eurer Stadt. In eurem gemeinsamen Umfeld sehen das die meisten ähnlich, dass ein ausgebautes Nahverkehrsnetz den Stadtverkehr erheblich entlastet.",1772953556166,84,soviel ich weiß,critical-3-c0-list2,48,low,"Wie wahrscheinlich ist es, dass du die empfohlene Handlung dann auch tatsächlich umsetzt?",low,8,1,0,8,3,Bachelor,100,stadtverkehr,2,low,61,Ein ausgebautes Nahverkehrsnetz entlastet,0,603f47e39649cf0339527014,comprehension_marker_assignment_balanced.csv,340423,false,69aca37e417992637b6ed8da,78601,"Wie stark hast du den Eindruck, dass die Sprecherin möchte, dass du ihre Empfehlung befolgst?",häufiger auf öffentliche Verkehrsmittel umsteigen,78601,1772953215743
3616,false,106,,Deutsch,filler,filler,77,75,false,die Konzentrationsfähigkeit.,69ad1e765212102f998b7602,"Dein/e Gesprächspartner/in spricht mit dir. Du hast erwähnt, dass du dich nachmittags immer schlapp und unkonzentriert fühlst.",1772953556166,75,ja,filler-106-filler-list2,48,filler,"Wie wahrscheinlich ist es, dass du die empfohlene Handlung dann auch tatsächlich umsetzt?",,9,1,0,9,106,Bachelor,100,trinken,2,,77,Genügend Wasser zu trinken verbessert,,603f47e39649cf0339527014,random_filler,340423,true,69aca37e417992637b6ed8da,9600,"Wie stark hast du den Eindruck, dass die Sprecherin möchte, dass du ihre Empfehlung befolgst?",öfter ein Glas Wasser trinken,9600,1772953215743
3616,false,101,,Deutsch,filler,filler,33,60,false,für Reisen innerhalb Deutschlands sehr praktisch.,69ad1e765212102f998b7602,"Dein/e Gesprächspartner/in spricht mit dir über Reisemöglichkeiten in Deutschland. Ihr überlegt, wie man umweltfreundlich von München nach Hamburg kommen kann.",1772953556166,60,bekanntlich,filler-101-filler-list2,48,filler,"Wie wahrscheinlich ist es, dass du die empfohlene Handlung dann auch tatsächlich umsetzt?",,10,1,0,10,101,Bachelor,100,bahn,2,,33,Der Zug ist,,603f47e39649cf0339527014,random_filler,340423,true,69aca37e417992637b6ed8da,9329,"Wie stark hast du den Eindruck, dass die Sprecherin möchte, dass du ihre Empfehlung befolgst?",häufiger mit der Bahn reisen,9329,1772953215743
3616,false,1,,Deutsch,critical,high,55,88,true,durch menschliche Aktivitäten verursacht.,69ad1e765212102f998b7602,Dein/e Gesprächspartner/in spricht mit dir über den Klimawandel. In eurem gemeinsamen Umfeld gehen die Meinungen dazu allerdings stark auseinander.,1772953556166,88,ja,critical-1-c2-list2,48,low,"Wie wahrscheinlich ist es, dass du die empfohlene Handlung dann auch tatsächlich umsetzt?",high,11,1,0,11,1,Bachelor,100,klimawandel,2,low,55,Der Klimawandel wird,2,603f47e39649cf0339527014,comprehension_marker_assignment_balanced.csv,340423,false,69aca37e417992637b6ed8da,32716,"Wie stark hast du den Eindruck, dass die Sprecherin möchte, dass du ihre Empfehlung befolgst?",auf Flugreisen verzichten,32716,1772953215743
3616,false,108,,Deutsch,filler,filler,53,75,false,auf Dauer das Gehör.,69ad1e765212102f998b7602,Dein/e Gesprächspartner/in spricht mit dir über Hörgewohnheiten. Du hörst ständig mit voller Lautstärke Musik über Kopfhörer.,1772953556166,75,soviel ich weiß,filler-108-filler-list2,48,filler,"Wie wahrscheinlich ist es, dass du die empfohlene Handlung dann auch tatsächlich umsetzt?",,12,1,0,12,108,Bachelor,100,laerm,2,,53,Laute Musik in Kopfhörern schädigt,,603f47e39649cf0339527014,random_filler,340423,true,69aca37e417992637b6ed8da,14715,"Wie stark hast du den Eindruck, dass die Sprecherin möchte, dass du ihre Empfehlung befolgst?",die Lautstärke beim Musikhören reduzieren,14714,1772953215743
3616,false,104,,Deutsch,filler,filler,40,66,false,"vielen Menschen, wach zu werden.",69ad1e765212102f998b7602,"Dein/e Gesprächspartner/in spricht mit dir an der Kaffeemaschine im Büro. Du hast erzählt, dass du morgens immer sehr müde bist.",1772953556166,66,ja,filler-104-filler-list2,48,filler,"Wie wahrscheinlich ist es, dass du die empfohlene Handlung dann auch tatsächlich umsetzt?",,13,1,0,13,104,Bachelor,100,kaffee,2,,40,Ein Kaffee am Morgen hilft,,603f47e39649cf0339527014,random_filler,340423,true,69aca37e417992637b6ed8da,8610,"Wie stark hast du den Eindruck, dass die Sprecherin möchte, dass du ihre Empfehlung befolgst?",morgens eine kleine Kaffeepause einplanen,8610,1772953215743
3616,false,8,,Deutsch,critical,low,58,80,true,die regionale Wirtschaft nachhaltig.,69ad1e765212102f998b7602,"Dein/e Gesprächspartner/in spricht mit dir über Einkaufsgewohnheiten. In eurem gemeinsamen Umfeld teilen die meisten die Überzeugung, dass der Einkauf bei lokalen Händlern die regionale Wirtschaft nachhaltig stärkt.",1772953556166,80,bekanntlich,critical-8-c1-list2,48,high,"Wie wahrscheinlich ist es, dass du die empfohlene Handlung dann auch tatsächlich umsetzt?",low,14,1,0,14,8,Bachelor,100,lokalkauf,2,high,58,Der Einkauf bei lokalen Händlern stärkt,1,603f47e39649cf0339527014,comprehension_marker_assignment_balanced.csv,340423,false,69aca37e417992637b6ed8da,8686,"Wie stark hast du den Eindruck, dass die Sprecherin möchte, dass du ihre Empfehlung befolgst?",öfter bei lokalen Geschäften einkaufen,8686,1772953215743
3616,false,5,,Deutsch,critical,high,23,88,true,entscheidend für die kognitive Leistungsfähigkeit.,69ad1e765212102f998b7602,Dein/e Gesprächspartner/in spricht mit dir über Gesundheit und Wohlbefinden. In eurem gemeinsamen Umfeld gehen die Meinungen dazu stark auseinander.,1772953556166,88,ja,critical-5-c2-list2,48,low,"Wie wahrscheinlich ist es, dass du die empfohlene Handlung dann auch tatsächlich umsetzt?",high,15,1,0,15,5,Bachelor,100,schlaf,2,low,23,Ausreichend Schlaf ist,2,603f47e39649cf0339527014,comprehension_marker_assignment_balanced.csv,340423,false,69aca37e417992637b6ed8da,11550,"Wie stark hast du den Eindruck, dass die Sprecherin möchte, dass du ihre Empfehlung befolgst?",auf feste Schlafzeiten achten,11550,1772953215743
3616,false,102,,Deutsch,filler,filler,86,82,false,gutes Licht die Augen.,69ad1e765212102f998b7602,Dein/e Gesprächspartner/in spricht mit dir über Lesegewohnheiten. Du hast dich über Kopfschmerzen beim Lesen beklagt.,1772953556166,82,soviel ich weiß,filler-102-filler-list2,48,filler,"Wie wahrscheinlich ist es, dass du die empfohlene Handlung dann auch tatsächlich umsetzt?",,16,1,0,16,102,Bachelor,100,leselicht,2,,86,Beim Lesen schont,,603f47e39649cf0339527014,random_filler,340423,true,69aca37e417992637b6ed8da,9585,"Wie stark hast du den Eindruck, dass die Sprecherin möchte, dass du ihre Empfehlung befolgst?",dir eine bessere Leselampe anschaffen,9585,1772953215743
3617,true,training,,deutsch,training,low,63,88,false,"im Arbeitsalltag, konzentriert zu bleiben.",69ad1ecaa6303e759c18ab5a,"Stell dir vor, ein Freund spricht mit dir über den Arbeitsalltag. In eurem Umfeld sehen die meisten das ähnlich: regelmäßige Pausen helfen dabei, sich besser zu konzentrieren.",1772953737665,88,ja,training,41,high,"Wie wahrscheinlich ist es, dass du die empfohlene Handlung dann auch tatsächlich umsetzt?",low,0,1,0,0,training,Abitur,100,training,0,high,63,Regelmäßige Pausen helfen,,69312ba1d943a5826b2cbcaf,manual_training,401493,false,69aca37e417992637b6ed8da,44277,"Wie stark hast du den Eindruck, dass die Sprecherin möchte, dass du ihre Empfehlung befolgst?",heute bewusst kurze Pausen einplanen,39871,1772953336172
3617,false,104,,deutsch,filler,filler,86,60,false,"vielen Menschen, wach zu werden.",69ad1ecaa6303e759c18ab5a,"Dein/e Gesprächspartner/in spricht mit dir an der Kaffeemaschine im Büro. Du hast erzählt, dass du morgens immer sehr müde bist.",1772953737665,60,ja,filler-104-filler-list0,41,filler,"Wie wahrscheinlich ist es, dass du die empfohlene Handlung dann auch tatsächlich umsetzt?",,1,1,0,1,104,Abitur,100,kaffee,0,,86,Ein Kaffee am Morgen hilft,,69312ba1d943a5826b2cbcaf,random_filler,401493,true,69aca37e417992637b6ed8da,27912,"Wie stark hast du den Eindruck, dass die Sprecherin möchte, dass du ihre Empfehlung befolgst?",morgens eine kleine Kaffeepause einplanen,27911,1772953336172
3617,false,4,,deutsch,critical,high,53,62,true,in der heutigen Arbeitswelt unverzichtbar.,69ad1ecaa6303e759c18ab5a,Dein/e Gesprächspartner/in spricht mit dir über Berufsausbildung und Weiterbildung. In eurem gemeinsamen Umfeld gehen die Meinungen dazu stark auseinander.,1772953737665,62,bekanntlich,critical-4-c3-list0,41,high,"Wie wahrscheinlich ist es, dass du die empfohlene Handlung dann auch tatsächlich umsetzt?",high,2,1,0,2,4,Abitur,100,digitalisierung,0,high,53,Digitale Kompetenzen sind,3,69312ba1d943a5826b2cbcaf,comprehension_marker_assignment_balanced.csv,401493,false,69aca37e417992637b6ed8da,26675,"Wie stark hast du den Eindruck, dass die Sprecherin möchte, dass du ihre Empfehlung befolgst?",regelmäßig digitale Weiterbildungsangebote nutzen,26674,1772953336172
3617,false,102,,deutsch,filler,filler,63,82,false,gutes Licht die Augen.,69ad1ecaa6303e759c18ab5a,Dein/e Gesprächspartner/in spricht mit dir über Lesegewohnheiten. Du hast dich über Kopfschmerzen beim Lesen beklagt.,1772953737665,82,ja,filler-102-filler-list0,41,filler,"Wie wahrscheinlich ist es, dass du die empfohlene Handlung dann auch tatsächlich umsetzt?",,3,1,0,3,102,Abitur,100,leselicht,0,,63,Beim Lesen schont,,69312ba1d943a5826b2cbcaf,random_filler,401493,true,69aca37e417992637b6ed8da,19540,"Wie stark hast du den Eindruck, dass die Sprecherin möchte, dass du ihre Empfehlung befolgst?",dir eine bessere Leselampe anschaffen,19540,1772953336172
3617,false,105,,deutsch,filler,filler,80,96,false,der mentalen Gesundheit gut.,69ad1ecaa6303e759c18ab5a,Dein/e Gesprächspartner/in spricht mit dir über Arbeit und Erholung. Du arbeitest seit Monaten ohne Urlaub durch und bist erschöpft.,1772953737665,96,bekanntlich,filler-105-filler-list0,41,filler,"Wie wahrscheinlich ist es, dass du die empfohlene Handlung dann auch tatsächlich umsetzt?",,4,1,0,4,105,Abitur,100,urlaub,0,,80,Regelmäßige Auszeiten tun,,69312ba1d943a5826b2cbcaf,random_filler,401493,true,69aca37e417992637b6ed8da,15622,"Wie stark hast du den Eindruck, dass die Sprecherin möchte, dass du ihre Empfehlung befolgst?",dieses Jahr endlich Urlaub nehmen,15622,1772953336172
3617,false,2,,deutsch,critical,low,57,81,true,die Gesundheit.,69ad1ecaa6303e759c18ab5a,"Dein/e Gesprächspartner/in spricht mit dir über Ernährungsgewohnheiten. In eurem gemeinsamen Umfeld teilen die meisten die Überzeugung, dass eine überwiegend pflanzliche Ernährung die Gesundheit fördert.",1772953737665,81,bekanntlich,critical-2-c1-list0,41,high,"Wie wahrscheinlich ist es, dass du die empfohlene Handlung dann auch tatsächlich umsetzt?",low,5,1,0,5,2,Abitur,100,ernaehrung,0,high,57,Eine überwiegend pflanzliche Ernährung fördert,1,69312ba1d943a5826b2cbcaf,comprehension_marker_assignment_balanced.csv,401493,false,69aca37e417992637b6ed8da,29984,"Wie stark hast du den Eindruck, dass die Sprecherin möchte, dass du ihre Empfehlung befolgst?",mehr pflanzliche Lebensmittel in deinen Alltag einbauen,29985,1772953336172
3617,false,103,,deutsch,filler,filler,39,55,false,im Vergleich zu Fertiggerichten Geld.,69ad1ecaa6303e759c18ab5a,"Dein/e Gesprächspartner/in spricht mit dir über den Ernährungsalltag. Du hast erwähnt, dass dein Geld für Essen kaum reicht.",1772953737665,55,soviel ich weiß,filler-103-filler-list0,41,filler,"Wie wahrscheinlich ist es, dass du die empfohlene Handlung dann auch tatsächlich umsetzt?",,6,1,0,6,103,Abitur,100,kochen,0,,39,Frisch Kochen spart,,69312ba1d943a5826b2cbcaf,random_filler,401493,true,69aca37e417992637b6ed8da,18845,"Wie stark hast du den Eindruck, dass die Sprecherin möchte, dass du ihre Empfehlung befolgst?",öfter selbst kochen,18845,1772953336172
3617,false,5,,deutsch,critical,low,40,57,true,entscheidend für die kognitive Leistungsfähigkeit.,69ad1ecaa6303e759c18ab5a,"Dein/e Gesprächspartner/in spricht mit dir über Gesundheit und Wohlbefinden. In eurem gemeinsamen Umfeld teilen die meisten die Ansicht, dass ausreichend Schlaf entscheidend für die kognitive Leistungsfähigkeit ist.",1772953737665,57,soviel ich weiß,critical-5-c0-list0,41,low,"Wie wahrscheinlich ist es, dass du die empfohlene Handlung dann auch tatsächlich umsetzt?",low,7,1,0,7,5,Abitur,100,schlaf,0,low,40,Ausreichend Schlaf ist,0,69312ba1d943a5826b2cbcaf,comprehension_marker_assignment_balanced.csv,401493,false,69aca37e417992637b6ed8da,22188,"Wie stark hast du den Eindruck, dass die Sprecherin möchte, dass du ihre Empfehlung befolgst?",auf feste Schlafzeiten achten,22188,1772953336172
3617,false,7,,deutsch,critical,high,57,67,true,das Risiko für Herz-Kreislauf-Erkrankungen deutlich.,69ad1ecaa6303e759c18ab5a,Dein/e Gesprächspartner/in spricht mit dir über gesunden Lebensstil. In eurem gemeinsamen Umfeld gehen die Meinungen dazu stark auseinander.,1772953737665,67,ja,critical-7-c2-list0,41,low,"Wie wahrscheinlich ist es, dass du die empfohlene Handlung dann auch tatsächlich umsetzt?",high,8,1,0,8,7,Abitur,100,sport,0,low,57,Regelmäßige körperliche Bewegung senkt,2,69312ba1d943a5826b2cbcaf,comprehension_marker_assignment_balanced.csv,401493,false,69aca37e417992637b6ed8da,23316,"Wie stark hast du den Eindruck, dass die Sprecherin möchte, dass du ihre Empfehlung befolgst?",regelmäßig Sport in deinen Alltag integrieren,23316,1772953336172
3617,false,108,,deutsch,filler,filler,44,54,false,auf Dauer das Gehör.,69ad1ecaa6303e759c18ab5a,Dein/e Gesprächspartner/in spricht mit dir über Hörgewohnheiten. Du hörst ständig mit voller Lautstärke Musik über Kopfhörer.,1772953737665,54,soviel ich weiß,filler-108-filler-list0,41,filler,"Wie wahrscheinlich ist es, dass du die empfohlene Handlung dann auch tatsächlich umsetzt?",,9,1,0,9,108,Abitur,100,laerm,0,,44,Laute Musik in Kopfhörern schädigt,,69312ba1d943a5826b2cbcaf,random_filler,401493,true,69aca37e417992637b6ed8da,17933,"Wie stark hast du den Eindruck, dass die Sprecherin möchte, dass du ihre Empfehlung befolgst?",die Lautstärke beim Musikhören reduzieren,17933,1772953336172
3617,false,106,,deutsch,filler,filler,85,68,false,die Konzentrationsfähigkeit.,69ad1ecaa6303e759c18ab5a,"Dein/e Gesprächspartner/in spricht mit dir. Du hast erwähnt, dass du dich nachmittags immer schlapp und unkonzentriert fühlst.",1772953737665,68,soviel ich weiß,filler-106-filler-list0,41,filler,"Wie wahrscheinlich ist es, dass du die empfohlene Handlung dann auch tatsächlich umsetzt?",,10,1,0,10,106,Abitur,100,trinken,0,,85,Genügend Wasser zu trinken verbessert,,69312ba1d943a5826b2cbcaf,random_filler,401493,true,69aca37e417992637b6ed8da,16291,"Wie stark hast du den Eindruck, dass die Sprecherin möchte, dass du ihre Empfehlung befolgst?",öfter ein Glas Wasser trinken,16291,1772953336172
3617,false,101,,deutsch,filler,filler,51,59,false,für Reisen innerhalb Deutschlands sehr praktisch.,69ad1ecaa6303e759c18ab5a,"Dein/e Gesprächspartner/in spricht mit dir über Reisemöglichkeiten in Deutschland. Ihr überlegt, wie man umweltfreundlich von München nach Hamburg kommen kann.",1772953737665,59,ja,filler-101-filler-list0,41,filler,"Wie wahrscheinlich ist es, dass du die empfohlene Handlung dann auch tatsächlich umsetzt?",,11,1,0,11,101,Abitur,100,bahn,0,,51,Der Zug ist,,69312ba1d943a5826b2cbcaf,random_filler,401493,true,69aca37e417992637b6ed8da,17460,"Wie stark hast du den Eindruck, dass die Sprecherin möchte, dass du ihre Empfehlung befolgst?",häufiger mit der Bahn reisen,17460,1772953336172
3617,false,1,,deutsch,critical,low,27,54,true,durch menschliche Aktivitäten verursacht.,69ad1ecaa6303e759c18ab5a,"Dein/e Gesprächspartner/in spricht mit dir über den Klimawandel. In eurem gemeinsamen Umfeld teilen die meisten die Ansicht, dass der Klimawandel durch menschliche Aktivitäten verursacht wird.",1772953737665,54,ja,critical-1-c0-list0,41,low,"Wie wahrscheinlich ist es, dass du die empfohlene Handlung dann auch tatsächlich umsetzt?",low,12,1,0,12,1,Abitur,100,klimawandel,0,low,27,Der Klimawandel wird,0,69312ba1d943a5826b2cbcaf,comprehension_marker_assignment_balanced.csv,401493,false,69aca37e417992637b6ed8da,20971,"Wie stark hast du den Eindruck, dass die Sprecherin möchte, dass du ihre Empfehlung befolgst?",auf Flugreisen verzichten,20971,1772953336172
3617,false,8,,deutsch,critical,high,75,65,true,die regionale Wirtschaft nachhaltig.,69ad1ecaa6303e759c18ab5a,Dein/e Gesprächspartner/in spricht mit dir über Einkaufsgewohnheiten. In eurem gemeinsamen Umfeld gehen die Meinungen dazu weit auseinander.,1772953737665,65,soviel ich weiß,critical-8-c3-list0,41,high,"Wie wahrscheinlich ist es, dass du die empfohlene Handlung dann auch tatsächlich umsetzt?",high,13,1,0,13,8,Abitur,100,lokalkauf,0,high,75,Der Einkauf bei lokalen Händlern stärkt,3,69312ba1d943a5826b2cbcaf,comprehension_marker_assignment_balanced.csv,401493,false,69aca37e417992637b6ed8da,21519,"Wie stark hast du den Eindruck, dass die Sprecherin möchte, dass du ihre Empfehlung befolgst?",öfter bei lokalen Geschäften einkaufen,21519,1772953336172
