submission_id,age,claim,comments,education,experiment_duration,experiment_end_time,experiment_start_time,item_id,languages,pc_prop_rating,prolific_pid,prolific_session_id,prolific_study_id,responseTime,rt,topic,trial_index
3428,32,Digitale Kompetenzen sind in der heutigen Arbeitswelt unverzichtbar.,,kein Abitur,70772,1772821229388,1772821158616,4,Deutsch,70,600bcf5e316e2628c33d0a0a,69ab1a920a945570d8a3c1aa,69a59a0dad1eb01904d9ba3f,7752,13829,digitalisierung,1
3428,32,Der Einkauf bei lokalen Händlern stärkt die regionale Wirtschaft nachhaltig.,,kein Abitur,70772,1772821229388,1772821158616,8,Deutsch,32,600bcf5e316e2628c33d0a0a,69ab1a920a945570d8a3c1aa,69a59a0dad1eb01904d9ba3f,4755,4755,lokalkauf,2
3428,32,Ein ausgebautes Nahverkehrsnetz entlastet den Stadtverkehr erheblich.,,kein Abitur,70772,1772821229388,1772821158616,3,Deutsch,71,600bcf5e316e2628c33d0a0a,69ab1a920a945570d8a3c1aa,69a59a0dad1eb01904d9ba3f,13147,13147,stadtverkehr,3
3428,32,Der Klimawandel wird durch menschliche Aktivitäten verursacht.,,kein Abitur,70772,1772821229388,1772821158616,1,Deutsch,85,600bcf5e316e2628c33d0a0a,69ab1a920a945570d8a3c1aa,69a59a0dad1eb01904d9ba3f,8906,8906,klimawandel,4
3428,32,Ausreichend Schlaf ist entscheidend für die kognitive Leistungsfähigkeit.,,kein Abitur,70772,1772821229388,1772821158616,5,Deutsch,79,600bcf5e316e2628c33d0a0a,69ab1a920a945570d8a3c1aa,69a59a0dad1eb01904d9ba3f,6357,6357,schlaf,5
3428,32,Einwegplastik schadet den Meeresökosystemen erheblich.,,kein Abitur,70772,1772821229388,1772821158616,6,Deutsch,89,600bcf5e316e2628c33d0a0a,69ab1a920a945570d8a3c1aa,69a59a0dad1eb01904d9ba3f,5686,5686,plastik,6
3428,32,Regelmäßige körperliche Bewegung senkt das Risiko für Herz-Kreislauf-Erkrankungen deutlich.,,kein Abitur,70772,1772821229388,1772821158616,7,Deutsch,69,600bcf5e316e2628c33d0a0a,69ab1a920a945570d8a3c1aa,69a59a0dad1eb01904d9ba3f,4200,4200,sport,7
3428,32,Eine überwiegend pflanzliche Ernährung fördert die Gesundheit.,,kein Abitur,70772,1772821229388,1772821158616,2,Deutsch,30,600bcf5e316e2628c33d0a0a,69ab1a920a945570d8a3c1aa,69a59a0dad1eb01904d9ba3f,3934,3934,ernaehrung,8
3429,28,Eine überwiegend pflanzliche Ernährung fördert die Gesundheit.,,Abitur,74180,1772821239415,1772821165235,2,deutsch,60,634693f87e70324e7a523b6d,69ab1aa8447f3af947317b2a,69a59a0dad1eb01904d9ba3f,10090,16968,ernaehrung,1
3429,28,Ein ausgebautes Nahverkehrsnetz entlastet den Stadtverkehr erheblich.,,Abitur,74180,1772821239415,1772821165235,3,deutsch,65,634693f87e70324e7a523b6d,69ab1aa8447f3af947317b2a,69a59a0dad1eb01904d9ba3f,7659,7659,stadtverkehr,2
3429,28,Der Klimawandel wird durch menschliche Aktivitäten verursacht.,,Abitur,74180,1772821239415,1772821165235,1,deutsch,80,634693f87e70324e7a523b6d,69ab1aa8447f3af947317b2a,69a59a0dad1eb01904d9ba3f,4588,4588,klimawandel,3
3429,28,Digitale Kompetenzen sind in der heutigen Arbeitswelt unverzichtbar.,,Abitur,74180,1772821239415,1772821165235,4,deutsch,89,634693f87e70324e7a523b6d,69ab1aa8447f3af947317b2a,69a59a0dad1eb01904d9ba3f,5474,5474,digitalisierung,4
3429,28,Ausreichend Schlaf ist entscheidend für die kognitive Leistungsfähigkeit.,,Abitur,74180,1772821239415,1772821165235,5,deutsch,85,634693f87e70324e7a523b6d,69ab1aa8447f3af947317b2a,69a59a0dad1eb01904d9ba3f,15016,15015,schlaf,5
3429,28,Der Einkauf bei lokalen Händlern stärkt die regionale Wirtschaft nachhaltig.,,Abitur,74180,1772821239415,1772821165235,8,deutsch,75,634693f87e70324e7a523b6d,69ab1aa8447f3af947317b2a,69a59a0dad1eb01904d9ba3f,5548,5548,lokalkauf,6
3429,28,Einwegplastik schadet den Meeresökosystemen erheblich.,,Abitur,74180,1772821239415,1772821165235,6,deutsch,80,634693f87e70324e7a523b6d,69ab1aa8447f3af947317b2a,69a59a0dad1eb01904d9ba3f,5808,5808,plastik,7
3429,28,Regelmäßige körperliche Bewegung senkt das Risiko für Herz-Kreislauf-Erkrankungen deutlich.,,Abitur,74180,1772821239415,1772821165235,7,deutsch,75,634693f87e70324e7a523b6d,69ab1aa8447f3af947317b2a,69a59a0dad1eb01904d9ba3f,5930,5930,sport,8
3445,28,Ausreichend Schlaf ist entscheidend für die kognitive Leistungsfähigkeit.,,Bachelor,35803,1772821563254,1772821527451,5,deutsch,90,6933fdd0fb966c34191d68e6,69ab1c11e8cda6433d7089ab,69a59a0dad1eb01904d9ba3f,5370,7655,schlaf,1
3445,28,Eine überwiegend pflanzliche Ernährung fördert die Gesundheit.,,Bachelor,35803,1772821563254,1772821527451,2,deutsch,63,6933fdd0fb966c34191d68e6,69ab1c11e8cda6433d7089ab,69a59a0dad1eb01904d9ba3f,4122,4122,ernaehrung,2
3445,28,Regelmäßige körperliche Bewegung senkt das Risiko für Herz-Kreislauf-Erkrankungen deutlich.,,Bachelor,35803,1772821563254,1772821527451,7,deutsch,94,6933fdd0fb966c34191d68e6,69ab1c11e8cda6433d7089ab,69a59a0dad1eb01904d9ba3f,2530,2530,sport,3
3445,28,Der Einkauf bei lokalen Händlern stärkt die regionale Wirtschaft nachhaltig.,,Bachelor,35803,1772821563254,1772821527451,8,deutsch,77,6933fdd0fb966c34191d68e6,69ab1c11e8cda6433d7089ab,69a59a0dad1eb01904d9ba3f,2781,2781,lokalkauf,4
3445,28,Einwegplastik schadet den Meeresökosystemen erheblich.,,Bachelor,35803,1772821563254,1772821527451,6,deutsch,96,6933fdd0fb966c34191d68e6,69ab1c11e8cda6433d7089ab,69a59a0dad1eb01904d9ba3f,1869,1869,plastik,5
3445,28,Digitale Kompetenzen sind in der heutigen Arbeitswelt unverzichtbar.,,Bachelor,35803,1772821563254,1772821527451,4,deutsch,84,6933fdd0fb966c34191d68e6,69ab1c11e8cda6433d7089ab,69a59a0dad1eb01904d9ba3f,3168,3168,digitalisierung,6
3445,28,Ein ausgebautes Nahverkehrsnetz entlastet den Stadtverkehr erheblich.,,Bachelor,35803,1772821563254,1772821527451,3,deutsch,86,6933fdd0fb966c34191d68e6,69ab1c11e8cda6433d7089ab,69a59a0dad1eb01904d9ba3f,2313,2313,stadtverkehr,7
3445,28,Der Klimawandel wird durch menschliche Aktivitäten verursacht.,,Bachelor,35803,1772821563254,1772821527451,1,deutsch,66,6933fdd0fb966c34191d68e6,69ab1c11e8cda6433d7089ab,69a59a0dad1eb01904d9ba3f,3844,3844,klimawandel,8
3430,25,Regelmäßige körperliche Bewegung senkt das Risiko für Herz-Kreislauf-Erkrankungen deutlich.,,Bachelor,78126,1772821267418,1772821189292,7,Deutsch,100,693407307f784b234604c379,69ab1abe3ae7715fb496a5c7,69a59a0dad1eb01904d9ba3f,7303,28469,sport,1
3430,25,Ausreichend Schlaf ist entscheidend für die kognitive Leistungsfähigkeit.,,Bachelor,78126,1772821267418,1772821189292,5,Deutsch,100,693407307f784b234604c379,69ab1abe3ae7715fb496a5c7,69a59a0dad1eb01904d9ba3f,3730,3730,schlaf,2
3430,25,Einwegplastik schadet den Meeresökosystemen erheblich.,,Bachelor,78126,1772821267418,1772821189292,6,Deutsch,100,693407307f784b234604c379,69ab1abe3ae7715fb496a5c7,69a59a0dad1eb01904d9ba3f,4462,4462,plastik,3
3430,25,Ein ausgebautes Nahverkehrsnetz entlastet den Stadtverkehr erheblich.,,Bachelor,78126,1772821267418,1772821189292,3,Deutsch,30,693407307f784b234604c379,69ab1abe3ae7715fb496a5c7,69a59a0dad1eb01904d9ba3f,7945,7945,stadtverkehr,4
3430,25,Digitale Kompetenzen sind in der heutigen Arbeitswelt unverzichtbar.,,Bachelor,78126,1772821267418,1772821189292,4,Deutsch,40,693407307f784b234604c379,69ab1abe3ae7715fb496a5c7,69a59a0dad1eb01904d9ba3f,7891,7891,digitalisierung,5
3430,25,Eine überwiegend pflanzliche Ernährung fördert die Gesundheit.,,Bachelor,78126,1772821267418,1772821189292,2,Deutsch,20,693407307f784b234604c379,69ab1abe3ae7715fb496a5c7,69a59a0dad1eb01904d9ba3f,6107,6107,ernaehrung,6
3430,25,Der Klimawandel wird durch menschliche Aktivitäten verursacht.,,Bachelor,78126,1772821267418,1772821189292,1,Deutsch,75,693407307f784b234604c379,69ab1abe3ae7715fb496a5c7,69a59a0dad1eb01904d9ba3f,5599,5599,klimawandel,7
3430,25,Der Einkauf bei lokalen Händlern stärkt die regionale Wirtschaft nachhaltig.,,Bachelor,78126,1772821267418,1772821189292,8,Deutsch,60,693407307f784b234604c379,69ab1abe3ae7715fb496a5c7,69a59a0dad1eb01904d9ba3f,6173,6173,lokalkauf,8
3431,41,Regelmäßige körperliche Bewegung senkt das Risiko für Herz-Kreislauf-Erkrankungen deutlich.,,Abitur,91793,1772821283870,1772821192077,7,"deutsch, polnisch",100,58d4ebdec8677b0001a2107b,69ab1ac6365fb33ee9ac1bc9,69a59a0dad1eb01904d9ba3f,7808,23696,sport,1
3431,41,Ausreichend Schlaf ist entscheidend für die kognitive Leistungsfähigkeit.,,Abitur,91793,1772821283870,1772821192077,5,"deutsch, polnisch",95,58d4ebdec8677b0001a2107b,69ab1ac6365fb33ee9ac1bc9,69a59a0dad1eb01904d9ba3f,9173,9173,schlaf,2
3431,41,Der Einkauf bei lokalen Händlern stärkt die regionale Wirtschaft nachhaltig.,,Abitur,91793,1772821283870,1772821192077,8,"deutsch, polnisch",100,58d4ebdec8677b0001a2107b,69ab1ac6365fb33ee9ac1bc9,69a59a0dad1eb01904d9ba3f,5340,5340,lokalkauf,3
3431,41,Der Klimawandel wird durch menschliche Aktivitäten verursacht.,,Abitur,91793,1772821283870,1772821192077,1,"deutsch, polnisch",0,58d4ebdec8677b0001a2107b,69ab1ac6365fb33ee9ac1bc9,69a59a0dad1eb01904d9ba3f,6435,6435,klimawandel,4
3431,41,Einwegplastik schadet den Meeresökosystemen erheblich.,,Abitur,91793,1772821283870,1772821192077,6,"deutsch, polnisch",100,58d4ebdec8677b0001a2107b,69ab1ac6365fb33ee9ac1bc9,69a59a0dad1eb01904d9ba3f,4298,4298,plastik,5
3431,41,Ein ausgebautes Nahverkehrsnetz entlastet den Stadtverkehr erheblich.,,Abitur,91793,1772821283870,1772821192077,3,"deutsch, polnisch",93,58d4ebdec8677b0001a2107b,69ab1ac6365fb33ee9ac1bc9,69a59a0dad1eb01904d9ba3f,9075,9075,stadtverkehr,6
3431,41,Eine überwiegend pflanzliche Ernährung fördert die Gesundheit.,,Abitur,91793,1772821283870,1772821192077,2,"deutsch, polnisch",74,58d4ebdec8677b0001a2107b,69ab1ac6365fb33ee9ac1bc9,69a59a0dad1eb01904d9ba3f,6780,6780,ernaehrung,7
3431,41,Digitale Kompetenzen sind in der heutigen Arbeitswelt unverzichtbar.,,Abitur,91793,1772821283870,1772821192077,4,"deutsch, polnisch",80,58d4ebdec8677b0001a2107b,69ab1ac6365fb33ee9ac1bc9,69a59a0dad1eb01904d9ba3f,6803,6803,digitalisierung,8
3435,31,Regelmäßige körperliche Bewegung senkt das Risiko für Herz-Kreislauf-Erkrankungen deutlich.,,Abitur,132529,1772821317834,1772821185305,7,Deutsch,98,6975ef36e8ff5503b84165db,69ab1aaf8e59d21633aa6a22,69a59a0dad1eb01904d9ba3f,8211,73536,sport,1
3435,31,Eine überwiegend pflanzliche Ernährung fördert die Gesundheit.,,Abitur,132529,1772821317834,1772821185305,2,Deutsch,37,6975ef36e8ff5503b84165db,69ab1aaf8e59d21633aa6a22,69a59a0dad1eb01904d9ba3f,6632,6632,ernaehrung,2
3435,31,Der Einkauf bei lokalen Händlern stärkt die regionale Wirtschaft nachhaltig.,,Abitur,132529,1772821317834,1772821185305,8,Deutsch,51,6975ef36e8ff5503b84165db,69ab1aaf8e59d21633aa6a22,69a59a0dad1eb01904d9ba3f,8263,8263,lokalkauf,3
3435,31,Ein ausgebautes Nahverkehrsnetz entlastet den Stadtverkehr erheblich.,,Abitur,132529,1772821317834,1772821185305,3,Deutsch,83,6975ef36e8ff5503b84165db,69ab1aaf8e59d21633aa6a22,69a59a0dad1eb01904d9ba3f,5548,5548,stadtverkehr,4
3435,31,Ausreichend Schlaf ist entscheidend für die kognitive Leistungsfähigkeit.,,Abitur,132529,1772821317834,1772821185305,5,Deutsch,100,6975ef36e8ff5503b84165db,69ab1aaf8e59d21633aa6a22,69a59a0dad1eb01904d9ba3f,5979,5980,schlaf,5
3435,31,Der Klimawandel wird durch menschliche Aktivitäten verursacht.,,Abitur,132529,1772821317834,1772821185305,1,Deutsch,70,6975ef36e8ff5503b84165db,69ab1aaf8e59d21633aa6a22,69a59a0dad1eb01904d9ba3f,4527,4527,klimawandel,6
3435,31,Digitale Kompetenzen sind in der heutigen Arbeitswelt unverzichtbar.,,Abitur,132529,1772821317834,1772821185305,4,Deutsch,68,6975ef36e8ff5503b84165db,69ab1aaf8e59d21633aa6a22,69a59a0dad1eb01904d9ba3f,9026,9026,digitalisierung,7
3435,31,Einwegplastik schadet den Meeresökosystemen erheblich.,,Abitur,132529,1772821317834,1772821185305,6,Deutsch,87,6975ef36e8ff5503b84165db,69ab1aaf8e59d21633aa6a22,69a59a0dad1eb01904d9ba3f,5655,5655,plastik,8
3438,38,Ein ausgebautes Nahverkehrsnetz entlastet den Stadtverkehr erheblich.,,Abitur,78274,1772821369631,1772821291357,3,"Deutsch, Russisch",80,6984b719db2917412dfc3135,69ab1b24bdd393573b19e5e3,69a59a0dad1eb01904d9ba3f,6966,20104,stadtverkehr,1
3438,38,Einwegplastik schadet den Meeresökosystemen erheblich.,,Abitur,78274,1772821369631,1772821291357,6,"Deutsch, Russisch",85,6984b719db2917412dfc3135,69ab1b24bdd393573b19e5e3,69a59a0dad1eb01904d9ba3f,8849,8849,plastik,2
3438,38,Digitale Kompetenzen sind in der heutigen Arbeitswelt unverzichtbar.,,Abitur,78274,1772821369631,1772821291357,4,"Deutsch, Russisch",70,6984b719db2917412dfc3135,69ab1b24bdd393573b19e5e3,69a59a0dad1eb01904d9ba3f,8983,8983,digitalisierung,3
3438,38,Der Klimawandel wird durch menschliche Aktivitäten verursacht.,,Abitur,78274,1772821369631,1772821291357,1,"Deutsch, Russisch",70,6984b719db2917412dfc3135,69ab1b24bdd393573b19e5e3,69a59a0dad1eb01904d9ba3f,5149,5149,klimawandel,4
3438,38,Regelmäßige körperliche Bewegung senkt das Risiko für Herz-Kreislauf-Erkrankungen deutlich.,,Abitur,78274,1772821369631,1772821291357,7,"Deutsch, Russisch",65,6984b719db2917412dfc3135,69ab1b24bdd393573b19e5e3,69a59a0dad1eb01904d9ba3f,4651,4651,sport,5
3438,38,Eine überwiegend pflanzliche Ernährung fördert die Gesundheit.,,Abitur,78274,1772821369631,1772821291357,2,"Deutsch, Russisch",30,6984b719db2917412dfc3135,69ab1b24bdd393573b19e5e3,69a59a0dad1eb01904d9ba3f,7849,7849,ernaehrung,6
3438,38,Der Einkauf bei lokalen Händlern stärkt die regionale Wirtschaft nachhaltig.,,Abitur,78274,1772821369631,1772821291357,8,"Deutsch, Russisch",65,6984b719db2917412dfc3135,69ab1b24bdd393573b19e5e3,69a59a0dad1eb01904d9ba3f,6333,6333,lokalkauf,7
3438,38,Ausreichend Schlaf ist entscheidend für die kognitive Leistungsfähigkeit.,,Abitur,78274,1772821369631,1772821291357,5,"Deutsch, Russisch",60,6984b719db2917412dfc3135,69ab1b24bdd393573b19e5e3,69a59a0dad1eb01904d9ba3f,4466,4466,schlaf,8
3444,59,Regelmäßige körperliche Bewegung senkt das Risiko für Herz-Kreislauf-Erkrankungen deutlich.,,Höherer Abschluss,102842,1772821536695,1772821433853,7,deutsch,100,68c289939239d967d2bbad43,69ab1bacac66b9a02bb39858,69a59a0dad1eb01904d9ba3f,8888,15362,sport,1
3444,59,Der Klimawandel wird durch menschliche Aktivitäten verursacht.,,Höherer Abschluss,102842,1772821536695,1772821433853,1,deutsch,60,68c289939239d967d2bbad43,69ab1bacac66b9a02bb39858,69a59a0dad1eb01904d9ba3f,7039,7039,klimawandel,2
3444,59,Digitale Kompetenzen sind in der heutigen Arbeitswelt unverzichtbar.,,Höherer Abschluss,102842,1772821536695,1772821433853,4,deutsch,59,68c289939239d967d2bbad43,69ab1bacac66b9a02bb39858,69a59a0dad1eb01904d9ba3f,8605,8605,digitalisierung,3
3444,59,Einwegplastik schadet den Meeresökosystemen erheblich.,,Höherer Abschluss,102842,1772821536695,1772821433853,6,deutsch,71,68c289939239d967d2bbad43,69ab1bacac66b9a02bb39858,69a59a0dad1eb01904d9ba3f,6567,6567,plastik,4
3444,59,Eine überwiegend pflanzliche Ernährung fördert die Gesundheit.,,Höherer Abschluss,102842,1772821536695,1772821433853,2,deutsch,19,68c289939239d967d2bbad43,69ab1bacac66b9a02bb39858,69a59a0dad1eb01904d9ba3f,12574,12574,ernaehrung,5
3444,59,Ausreichend Schlaf ist entscheidend für die kognitive Leistungsfähigkeit.,,Höherer Abschluss,102842,1772821536695,1772821433853,5,deutsch,66,68c289939239d967d2bbad43,69ab1bacac66b9a02bb39858,69a59a0dad1eb01904d9ba3f,10078,10078,schlaf,6
3444,59,Ein ausgebautes Nahverkehrsnetz entlastet den Stadtverkehr erheblich.,,Höherer Abschluss,102842,1772821536695,1772821433853,3,deutsch,64,68c289939239d967d2bbad43,69ab1bacac66b9a02bb39858,69a59a0dad1eb01904d9ba3f,7470,7470,stadtverkehr,7
3444,59,Der Einkauf bei lokalen Händlern stärkt die regionale Wirtschaft nachhaltig.,,Höherer Abschluss,102842,1772821536695,1772821433853,8,deutsch,76,68c289939239d967d2bbad43,69ab1bacac66b9a02bb39858,69a59a0dad1eb01904d9ba3f,5648,5648,lokalkauf,8
3432,61,Der Klimawandel wird durch menschliche Aktivitäten verursacht.,keine weiteren Kommentare,Höherer Abschluss,77332,1772821288440,1772821211108,1,Deutsch,75,5bf4033ff719c9000153d38e,69ab1aa0523673d43bad93ed,69a59a0dad1eb01904d9ba3f,9622,17694,klimawandel,1
3432,61,Ausreichend Schlaf ist entscheidend für die kognitive Leistungsfähigkeit.,keine weiteren Kommentare,Höherer Abschluss,77332,1772821288440,1772821211108,5,Deutsch,67,5bf4033ff719c9000153d38e,69ab1aa0523673d43bad93ed,69a59a0dad1eb01904d9ba3f,5993,5993,schlaf,2
3432,61,Ein ausgebautes Nahverkehrsnetz entlastet den Stadtverkehr erheblich.,keine weiteren Kommentare,Höherer Abschluss,77332,1772821288440,1772821211108,3,Deutsch,95,5bf4033ff719c9000153d38e,69ab1aa0523673d43bad93ed,69a59a0dad1eb01904d9ba3f,5631,5631,stadtverkehr,3
3432,61,Digitale Kompetenzen sind in der heutigen Arbeitswelt unverzichtbar.,keine weiteren Kommentare,Höherer Abschluss,77332,1772821288440,1772821211108,4,Deutsch,82,5bf4033ff719c9000153d38e,69ab1aa0523673d43bad93ed,69a59a0dad1eb01904d9ba3f,3965,3965,digitalisierung,4
3432,61,Der Einkauf bei lokalen Händlern stärkt die regionale Wirtschaft nachhaltig.,keine weiteren Kommentare,Höherer Abschluss,77332,1772821288440,1772821211108,8,Deutsch,60,5bf4033ff719c9000153d38e,69ab1aa0523673d43bad93ed,69a59a0dad1eb01904d9ba3f,4538,4538,lokalkauf,5
3432,61,Einwegplastik schadet den Meeresökosystemen erheblich.,keine weiteren Kommentare,Höherer Abschluss,77332,1772821288440,1772821211108,6,Deutsch,65,5bf4033ff719c9000153d38e,69ab1aa0523673d43bad93ed,69a59a0dad1eb01904d9ba3f,4017,4017,plastik,6
3432,61,Regelmäßige körperliche Bewegung senkt das Risiko für Herz-Kreislauf-Erkrankungen deutlich.,keine weiteren Kommentare,Höherer Abschluss,77332,1772821288440,1772821211108,7,Deutsch,78,5bf4033ff719c9000153d38e,69ab1aa0523673d43bad93ed,69a59a0dad1eb01904d9ba3f,4940,4940,sport,7
3432,61,Eine überwiegend pflanzliche Ernährung fördert die Gesundheit.,keine weiteren Kommentare,Höherer Abschluss,77332,1772821288440,1772821211108,2,Deutsch,73,5bf4033ff719c9000153d38e,69ab1aa0523673d43bad93ed,69a59a0dad1eb01904d9ba3f,4363,4363,ernaehrung,8
3433,37,Der Einkauf bei lokalen Händlern stärkt die regionale Wirtschaft nachhaltig.,,Bachelor,66312,1772821293385,1772821227073,8,deutsch,100,5aad4225811b2000016f6ed1,69ab1ae21a185ceadd9d83cb,69a59a0dad1eb01904d9ba3f,6810,15395,lokalkauf,1
3433,37,Ein ausgebautes Nahverkehrsnetz entlastet den Stadtverkehr erheblich.,,Bachelor,66312,1772821293385,1772821227073,3,deutsch,100,5aad4225811b2000016f6ed1,69ab1ae21a185ceadd9d83cb,69a59a0dad1eb01904d9ba3f,6818,6818,stadtverkehr,2
3433,37,Regelmäßige körperliche Bewegung senkt das Risiko für Herz-Kreislauf-Erkrankungen deutlich.,,Bachelor,66312,1772821293385,1772821227073,7,deutsch,100,5aad4225811b2000016f6ed1,69ab1ae21a185ceadd9d83cb,69a59a0dad1eb01904d9ba3f,4028,4028,sport,3
3433,37,Digitale Kompetenzen sind in der heutigen Arbeitswelt unverzichtbar.,,Bachelor,66312,1772821293385,1772821227073,4,deutsch,78,5aad4225811b2000016f6ed1,69ab1ae21a185ceadd9d83cb,69a59a0dad1eb01904d9ba3f,4901,4901,digitalisierung,4
3433,37,Der Klimawandel wird durch menschliche Aktivitäten verursacht.,,Bachelor,66312,1772821293385,1772821227073,1,deutsch,66,5aad4225811b2000016f6ed1,69ab1ae21a185ceadd9d83cb,69a59a0dad1eb01904d9ba3f,6603,6603,klimawandel,5
3433,37,Einwegplastik schadet den Meeresökosystemen erheblich.,,Bachelor,66312,1772821293385,1772821227073,6,deutsch,89,5aad4225811b2000016f6ed1,69ab1ae21a185ceadd9d83cb,69a59a0dad1eb01904d9ba3f,4027,4027,plastik,6
3433,37,Eine überwiegend pflanzliche Ernährung fördert die Gesundheit.,,Bachelor,66312,1772821293385,1772821227073,2,deutsch,44,5aad4225811b2000016f6ed1,69ab1ae21a185ceadd9d83cb,69a59a0dad1eb01904d9ba3f,6078,6078,ernaehrung,7
3433,37,Ausreichend Schlaf ist entscheidend für die kognitive Leistungsfähigkeit.,,Bachelor,66312,1772821293385,1772821227073,5,deutsch,94,5aad4225811b2000016f6ed1,69ab1ae21a185ceadd9d83cb,69a59a0dad1eb01904d9ba3f,4234,4234,schlaf,8
3434,43,Eine überwiegend pflanzliche Ernährung fördert die Gesundheit.,,Bachelor,63533,1772821316377,1772821252844,2,deutsch,79,5fff0b0bcbc37a5f5928ed26,69ab1afdb4d866328181ef93,69a59a0dad1eb01904d9ba3f,5185,12826,ernaehrung,1
3434,43,Ausreichend Schlaf ist entscheidend für die kognitive Leistungsfähigkeit.,,Bachelor,63533,1772821316377,1772821252844,5,deutsch,96,5fff0b0bcbc37a5f5928ed26,69ab1afdb4d866328181ef93,69a59a0dad1eb01904d9ba3f,4635,4635,schlaf,2
3434,43,Ein ausgebautes Nahverkehrsnetz entlastet den Stadtverkehr erheblich.,,Bachelor,63533,1772821316377,1772821252844,3,deutsch,93,5fff0b0bcbc37a5f5928ed26,69ab1afdb4d866328181ef93,69a59a0dad1eb01904d9ba3f,6012,6013,stadtverkehr,3
3434,43,Einwegplastik schadet den Meeresökosystemen erheblich.,,Bachelor,63533,1772821316377,1772821252844,6,deutsch,56,5fff0b0bcbc37a5f5928ed26,69ab1afdb4d866328181ef93,69a59a0dad1eb01904d9ba3f,4900,4900,plastik,4
3434,43,Digitale Kompetenzen sind in der heutigen Arbeitswelt unverzichtbar.,,Bachelor,63533,1772821316377,1772821252844,4,deutsch,85,5fff0b0bcbc37a5f5928ed26,69ab1afdb4d866328181ef93,69a59a0dad1eb01904d9ba3f,4869,4869,digitalisierung,5
3434,43,Der Einkauf bei lokalen Händlern stärkt die regionale Wirtschaft nachhaltig.,,Bachelor,63533,1772821316377,1772821252844,8,deutsch,60,5fff0b0bcbc37a5f5928ed26,69ab1afdb4d866328181ef93,69a59a0dad1eb01904d9ba3f,6412,6413,lokalkauf,6
3434,43,Regelmäßige körperliche Bewegung senkt das Risiko für Herz-Kreislauf-Erkrankungen deutlich.,,Bachelor,63533,1772821316377,1772821252844,7,deutsch,92,5fff0b0bcbc37a5f5928ed26,69ab1afdb4d866328181ef93,69a59a0dad1eb01904d9ba3f,6628,6627,sport,7
3434,43,Der Klimawandel wird durch menschliche Aktivitäten verursacht.,,Bachelor,63533,1772821316377,1772821252844,1,deutsch,100,5fff0b0bcbc37a5f5928ed26,69ab1afdb4d866328181ef93,69a59a0dad1eb01904d9ba3f,3738,3738,klimawandel,8
3436,30,Der Einkauf bei lokalen Händlern stärkt die regionale Wirtschaft nachhaltig.,,kein Abitur,74978,1772821329933,1772821254955,8,Deutsch,70,69173e80b7e15e89380c6773,69ab1b0248cf04ff329bbe59,69a59a0dad1eb01904d9ba3f,6604,18507,lokalkauf,1
3436,30,Der Klimawandel wird durch menschliche Aktivitäten verursacht.,,kein Abitur,74978,1772821329933,1772821254955,1,Deutsch,50,69173e80b7e15e89380c6773,69ab1b0248cf04ff329bbe59,69a59a0dad1eb01904d9ba3f,4483,4483,klimawandel,2
3436,30,Digitale Kompetenzen sind in der heutigen Arbeitswelt unverzichtbar.,,kein Abitur,74978,1772821329933,1772821254955,4,Deutsch,60,69173e80b7e15e89380c6773,69ab1b0248cf04ff329bbe59,69a59a0dad1eb01904d9ba3f,4360,4360,digitalisierung,3
3436,30,Einwegplastik schadet den Meeresökosystemen erheblich.,,kein Abitur,74978,1772821329933,1772821254955,6,Deutsch,50,69173e80b7e15e89380c6773,69ab1b0248cf04ff329bbe59,69a59a0dad1eb01904d9ba3f,6849,6849,plastik,4
3436,30,Ein ausgebautes Nahverkehrsnetz entlastet den Stadtverkehr erheblich.,,kein Abitur,74978,1772821329933,1772821254955,3,Deutsch,65,69173e80b7e15e89380c6773,69ab1b0248cf04ff329bbe59,69a59a0dad1eb01904d9ba3f,5831,5832,stadtverkehr,5
3436,30,Eine überwiegend pflanzliche Ernährung fördert die Gesundheit.,,kein Abitur,74978,1772821329933,1772821254955,2,Deutsch,55,69173e80b7e15e89380c6773,69ab1b0248cf04ff329bbe59,69a59a0dad1eb01904d9ba3f,5928,5928,ernaehrung,6
3436,30,Ausreichend Schlaf ist entscheidend für die kognitive Leistungsfähigkeit.,,kein Abitur,74978,1772821329933,1772821254955,5,Deutsch,100,69173e80b7e15e89380c6773,69ab1b0248cf04ff329bbe59,69a59a0dad1eb01904d9ba3f,5872,5871,schlaf,7
3436,30,Regelmäßige körperliche Bewegung senkt das Risiko für Herz-Kreislauf-Erkrankungen deutlich.,,kein Abitur,74978,1772821329933,1772821254955,7,Deutsch,90,69173e80b7e15e89380c6773,69ab1b0248cf04ff329bbe59,69a59a0dad1eb01904d9ba3f,4433,4433,sport,8
3437,24,Einwegplastik schadet den Meeresökosystemen erheblich.,,kein Abitur,72424,1772821355313,1772821282889,6,Deutsch,100,6972c595bd90264420920c6d,69ab1afdaa5c35c4e47e74e7,69a59a0dad1eb01904d9ba3f,5236,9481,plastik,1
3437,24,Digitale Kompetenzen sind in der heutigen Arbeitswelt unverzichtbar.,,kein Abitur,72424,1772821355313,1772821282889,4,Deutsch,86,6972c595bd90264420920c6d,69ab1afdaa5c35c4e47e74e7,69a59a0dad1eb01904d9ba3f,7252,7252,digitalisierung,2
3437,24,Der Klimawandel wird durch menschliche Aktivitäten verursacht.,,kein Abitur,72424,1772821355313,1772821282889,1,Deutsch,100,6972c595bd90264420920c6d,69ab1afdaa5c35c4e47e74e7,69a59a0dad1eb01904d9ba3f,6883,6883,klimawandel,3
3437,24,Ausreichend Schlaf ist entscheidend für die kognitive Leistungsfähigkeit.,,kein Abitur,72424,1772821355313,1772821282889,5,Deutsch,78,6972c595bd90264420920c6d,69ab1afdaa5c35c4e47e74e7,69a59a0dad1eb01904d9ba3f,8174,8174,schlaf,4
3437,24,Regelmäßige körperliche Bewegung senkt das Risiko für Herz-Kreislauf-Erkrankungen deutlich.,,kein Abitur,72424,1772821355313,1772821282889,7,Deutsch,86,6972c595bd90264420920c6d,69ab1afdaa5c35c4e47e74e7,69a59a0dad1eb01904d9ba3f,9468,9468,sport,5
3437,24,Der Einkauf bei lokalen Händlern stärkt die regionale Wirtschaft nachhaltig.,,kein Abitur,72424,1772821355313,1772821282889,8,Deutsch,62,6972c595bd90264420920c6d,69ab1afdaa5c35c4e47e74e7,69a59a0dad1eb01904d9ba3f,10021,10022,lokalkauf,6
3437,24,Eine überwiegend pflanzliche Ernährung fördert die Gesundheit.,,kein Abitur,72424,1772821355313,1772821282889,2,Deutsch,27,6972c595bd90264420920c6d,69ab1afdaa5c35c4e47e74e7,69a59a0dad1eb01904d9ba3f,6116,6116,ernaehrung,7
3437,24,Ein ausgebautes Nahverkehrsnetz entlastet den Stadtverkehr erheblich.,,kein Abitur,72424,1772821355313,1772821282889,3,Deutsch,68,6972c595bd90264420920c6d,69ab1afdaa5c35c4e47e74e7,69a59a0dad1eb01904d9ba3f,6670,6670,stadtverkehr,8
3439,31,Der Einkauf bei lokalen Händlern stärkt die regionale Wirtschaft nachhaltig.,,Abitur,58914,1772821375321,1772821316407,8,Deutsch,89,68bacc3ee16b40e8f352249c,69ab1b3c08e5d4e92d8d49a5,69a59a0dad1eb01904d9ba3f,5730,17501,lokalkauf,1
3439,31,Ein ausgebautes Nahverkehrsnetz entlastet den Stadtverkehr erheblich.,,Abitur,58914,1772821375321,1772821316407,3,Deutsch,100,68bacc3ee16b40e8f352249c,69ab1b3c08e5d4e92d8d49a5,69a59a0dad1eb01904d9ba3f,3584,3584,stadtverkehr,2
3439,31,Eine überwiegend pflanzliche Ernährung fördert die Gesundheit.,,Abitur,58914,1772821375321,1772821316407,2,Deutsch,9,68bacc3ee16b40e8f352249c,69ab1b3c08e5d4e92d8d49a5,69a59a0dad1eb01904d9ba3f,5788,5788,ernaehrung,3
3439,31,Der Klimawandel wird durch menschliche Aktivitäten verursacht.,,Abitur,58914,1772821375321,1772821316407,1,Deutsch,62,68bacc3ee16b40e8f352249c,69ab1b3c08e5d4e92d8d49a5,69a59a0dad1eb01904d9ba3f,3173,3173,klimawandel,4
3439,31,Regelmäßige körperliche Bewegung senkt das Risiko für Herz-Kreislauf-Erkrankungen deutlich.,,Abitur,58914,1772821375321,1772821316407,7,Deutsch,65,68bacc3ee16b40e8f352249c,69ab1b3c08e5d4e92d8d49a5,69a59a0dad1eb01904d9ba3f,3854,3854,sport,5
3439,31,Ausreichend Schlaf ist entscheidend für die kognitive Leistungsfähigkeit.,,Abitur,58914,1772821375321,1772821316407,5,Deutsch,83,68bacc3ee16b40e8f352249c,69ab1b3c08e5d4e92d8d49a5,69a59a0dad1eb01904d9ba3f,3376,3376,schlaf,6
3439,31,Digitale Kompetenzen sind in der heutigen Arbeitswelt unverzichtbar.,,Abitur,58914,1772821375321,1772821316407,4,Deutsch,36,68bacc3ee16b40e8f352249c,69ab1b3c08e5d4e92d8d49a5,69a59a0dad1eb01904d9ba3f,3738,3738,digitalisierung,7
3439,31,Einwegplastik schadet den Meeresökosystemen erheblich.,,Abitur,58914,1772821375321,1772821316407,6,Deutsch,25,68bacc3ee16b40e8f352249c,69ab1b3c08e5d4e92d8d49a5,69a59a0dad1eb01904d9ba3f,3201,3201,plastik,8
3447,39,Ausreichend Schlaf ist entscheidend für die kognitive Leistungsfähigkeit.,,Bachelor,307539,1772821581081,1772821273542,5,deutsch,90,603a80b01bb75f608c3dbb0d,69ab1af459277476403e4b17,69a59a0dad1eb01904d9ba3f,10472,18459,schlaf,1
3447,39,Der Klimawandel wird durch menschliche Aktivitäten verursacht.,,Bachelor,307539,1772821581081,1772821273542,1,deutsch,70,603a80b01bb75f608c3dbb0d,69ab1af459277476403e4b17,69a59a0dad1eb01904d9ba3f,76868,76869,klimawandel,2
3447,39,Regelmäßige körperliche Bewegung senkt das Risiko für Herz-Kreislauf-Erkrankungen deutlich.,,Bachelor,307539,1772821581081,1772821273542,7,deutsch,95,603a80b01bb75f608c3dbb0d,69ab1af459277476403e4b17,69a59a0dad1eb01904d9ba3f,9888,9889,sport,3
3447,39,Einwegplastik schadet den Meeresökosystemen erheblich.,,Bachelor,307539,1772821581081,1772821273542,6,deutsch,100,603a80b01bb75f608c3dbb0d,69ab1af459277476403e4b17,69a59a0dad1eb01904d9ba3f,6210,6210,plastik,4
3447,39,Der Einkauf bei lokalen Händlern stärkt die regionale Wirtschaft nachhaltig.,,Bachelor,307539,1772821581081,1772821273542,8,deutsch,65,603a80b01bb75f608c3dbb0d,69ab1af459277476403e4b17,69a59a0dad1eb01904d9ba3f,139339,139339,lokalkauf,5
3447,39,Eine überwiegend pflanzliche Ernährung fördert die Gesundheit.,,Bachelor,307539,1772821581081,1772821273542,2,deutsch,40,603a80b01bb75f608c3dbb0d,69ab1af459277476403e4b17,69a59a0dad1eb01904d9ba3f,9337,9337,ernaehrung,6
3447,39,Digitale Kompetenzen sind in der heutigen Arbeitswelt unverzichtbar.,,Bachelor,307539,1772821581081,1772821273542,4,deutsch,30,603a80b01bb75f608c3dbb0d,69ab1af459277476403e4b17,69a59a0dad1eb01904d9ba3f,16008,16008,digitalisierung,7
3447,39,Ein ausgebautes Nahverkehrsnetz entlastet den Stadtverkehr erheblich.,,Bachelor,307539,1772821581081,1772821273542,3,deutsch,65,603a80b01bb75f608c3dbb0d,69ab1af459277476403e4b17,69a59a0dad1eb01904d9ba3f,7583,7583,stadtverkehr,8
3440,41,Der Einkauf bei lokalen Händlern stärkt die regionale Wirtschaft nachhaltig.,,kein Abitur,109646,1772821390910,1772821281264,8,Deutsch,71,62ea83d29a7ce920cbc1de32,69ab1b144a6da88096708c2c,69a59a0dad1eb01904d9ba3f,11457,28918,lokalkauf,1
3440,41,Ein ausgebautes Nahverkehrsnetz entlastet den Stadtverkehr erheblich.,,kein Abitur,109646,1772821390910,1772821281264,3,Deutsch,58,62ea83d29a7ce920cbc1de32,69ab1b144a6da88096708c2c,69a59a0dad1eb01904d9ba3f,8565,8566,stadtverkehr,2
3440,41,Digitale Kompetenzen sind in der heutigen Arbeitswelt unverzichtbar.,,kein Abitur,109646,1772821390910,1772821281264,4,Deutsch,95,62ea83d29a7ce920cbc1de32,69ab1b144a6da88096708c2c,69a59a0dad1eb01904d9ba3f,7168,7168,digitalisierung,3
3440,41,Der Klimawandel wird durch menschliche Aktivitäten verursacht.,,kein Abitur,109646,1772821390910,1772821281264,1,Deutsch,74,62ea83d29a7ce920cbc1de32,69ab1b144a6da88096708c2c,69a59a0dad1eb01904d9ba3f,6968,6968,klimawandel,4
3440,41,Eine überwiegend pflanzliche Ernährung fördert die Gesundheit.,,kein Abitur,109646,1772821390910,1772821281264,2,Deutsch,57,62ea83d29a7ce920cbc1de32,69ab1b144a6da88096708c2c,69a59a0dad1eb01904d9ba3f,6528,6528,ernaehrung,5
3440,41,Ausreichend Schlaf ist entscheidend für die kognitive Leistungsfähigkeit.,,kein Abitur,109646,1772821390910,1772821281264,5,Deutsch,100,62ea83d29a7ce920cbc1de32,69ab1b144a6da88096708c2c,69a59a0dad1eb01904d9ba3f,4952,4952,schlaf,6
3440,41,Regelmäßige körperliche Bewegung senkt das Risiko für Herz-Kreislauf-Erkrankungen deutlich.,,kein Abitur,109646,1772821390910,1772821281264,7,Deutsch,98,62ea83d29a7ce920cbc1de32,69ab1b144a6da88096708c2c,69a59a0dad1eb01904d9ba3f,5200,5200,sport,7
3440,41,Einwegplastik schadet den Meeresökosystemen erheblich.,,kein Abitur,109646,1772821390910,1772821281264,6,Deutsch,88,62ea83d29a7ce920cbc1de32,69ab1b144a6da88096708c2c,69a59a0dad1eb01904d9ba3f,5359,5359,plastik,8
3442,28,Ein ausgebautes Nahverkehrsnetz entlastet den Stadtverkehr erheblich.,,Bachelor,73288,1772821627361,1772821554073,3,deutsch,72,69814577851c465aeb43a908,69ab1b8d7fa805b00affcafd,69a59a0dad1eb01904d9ba3f,6899,21401,stadtverkehr,1
3442,28,Eine überwiegend pflanzliche Ernährung fördert die Gesundheit.,,Bachelor,73288,1772821627361,1772821554073,2,deutsch,29,69814577851c465aeb43a908,69ab1b8d7fa805b00affcafd,69a59a0dad1eb01904d9ba3f,7653,7653,ernaehrung,2
3442,28,Regelmäßige körperliche Bewegung senkt das Risiko für Herz-Kreislauf-Erkrankungen deutlich.,,Bachelor,73288,1772821627361,1772821554073,7,deutsch,71,69814577851c465aeb43a908,69ab1b8d7fa805b00affcafd,69a59a0dad1eb01904d9ba3f,7432,7432,sport,3
3442,28,Der Klimawandel wird durch menschliche Aktivitäten verursacht.,,Bachelor,73288,1772821627361,1772821554073,1,deutsch,69,69814577851c465aeb43a908,69ab1b8d7fa805b00affcafd,69a59a0dad1eb01904d9ba3f,3795,3795,klimawandel,4
3442,28,Der Einkauf bei lokalen Händlern stärkt die regionale Wirtschaft nachhaltig.,,Bachelor,73288,1772821627361,1772821554073,8,deutsch,61,69814577851c465aeb43a908,69ab1b8d7fa805b00affcafd,69a59a0dad1eb01904d9ba3f,6411,6411,lokalkauf,5
3442,28,Digitale Kompetenzen sind in der heutigen Arbeitswelt unverzichtbar.,,Bachelor,73288,1772821627361,1772821554073,4,deutsch,58,69814577851c465aeb43a908,69ab1b8d7fa805b00affcafd,69a59a0dad1eb01904d9ba3f,4842,4842,digitalisierung,6
3442,28,Einwegplastik schadet den Meeresökosystemen erheblich.,,Bachelor,73288,1772821627361,1772821554073,6,deutsch,65,69814577851c465aeb43a908,69ab1b8d7fa805b00affcafd,69a59a0dad1eb01904d9ba3f,4169,4169,plastik,7
3442,28,Ausreichend Schlaf ist entscheidend für die kognitive Leistungsfähigkeit.,,Bachelor,73288,1772821627361,1772821554073,5,deutsch,79,69814577851c465aeb43a908,69ab1b8d7fa805b00affcafd,69a59a0dad1eb01904d9ba3f,7095,7095,schlaf,8
3441,31,Einwegplastik schadet den Meeresökosystemen erheblich.,,Höherer Abschluss,209524,1772821436720,1772821227196,6,deutsch,84,5b6445d9ad5971000103d9c8,69ab1ae59e0dc7d84acf0dfd,69a59a0dad1eb01904d9ba3f,4849,75287,plastik,1
3441,31,Der Einkauf bei lokalen Händlern stärkt die regionale Wirtschaft nachhaltig.,,Höherer Abschluss,209524,1772821436720,1772821227196,8,deutsch,58,5b6445d9ad5971000103d9c8,69ab1ae59e0dc7d84acf0dfd,69a59a0dad1eb01904d9ba3f,24480,24480,lokalkauf,2
3441,31,Der Klimawandel wird durch menschliche Aktivitäten verursacht.,,Höherer Abschluss,209524,1772821436720,1772821227196,1,deutsch,60,5b6445d9ad5971000103d9c8,69ab1ae59e0dc7d84acf0dfd,69a59a0dad1eb01904d9ba3f,12400,12400,klimawandel,3
3441,31,Digitale Kompetenzen sind in der heutigen Arbeitswelt unverzichtbar.,,Höherer Abschluss,209524,1772821436720,1772821227196,4,deutsch,42,5b6445d9ad5971000103d9c8,69ab1ae59e0dc7d84acf0dfd,69a59a0dad1eb01904d9ba3f,10109,10109,digitalisierung,4
3441,31,Regelmäßige körperliche Bewegung senkt das Risiko für Herz-Kreislauf-Erkrankungen deutlich.,,Höherer Abschluss,209524,1772821436720,1772821227196,7,deutsch,89,5b6445d9ad5971000103d9c8,69ab1ae59e0dc7d84acf0dfd,69a59a0dad1eb01904d9ba3f,23325,23325,sport,5
3441,31,Ein ausgebautes Nahverkehrsnetz entlastet den Stadtverkehr erheblich.,,Höherer Abschluss,209524,1772821436720,1772821227196,3,deutsch,42,5b6445d9ad5971000103d9c8,69ab1ae59e0dc7d84acf0dfd,69a59a0dad1eb01904d9ba3f,4103,4103,stadtverkehr,6
3441,31,Eine überwiegend pflanzliche Ernährung fördert die Gesundheit.,,Höherer Abschluss,209524,1772821436720,1772821227196,2,deutsch,27,5b6445d9ad5971000103d9c8,69ab1ae59e0dc7d84acf0dfd,69a59a0dad1eb01904d9ba3f,3837,3837,ernaehrung,7
3441,31,Ausreichend Schlaf ist entscheidend für die kognitive Leistungsfähigkeit.,,Höherer Abschluss,209524,1772821436720,1772821227196,5,deutsch,74,5b6445d9ad5971000103d9c8,69ab1ae59e0dc7d84acf0dfd,69a59a0dad1eb01904d9ba3f,2767,2767,schlaf,8
3443,33,Digitale Kompetenzen sind in der heutigen Arbeitswelt unverzichtbar.,,Bachelor,318432,1772821481430,1772821162998,4,Deutsch,100,5a7fab56f49c9a0001f3549e,69ab1aa3e777a4bcd0b26dbc,69a59a0dad1eb01904d9ba3f,4056,6358,digitalisierung,1
3443,33,Der Klimawandel wird durch menschliche Aktivitäten verursacht.,,Bachelor,318432,1772821481430,1772821162998,1,Deutsch,60,5a7fab56f49c9a0001f3549e,69ab1aa3e777a4bcd0b26dbc,69a59a0dad1eb01904d9ba3f,2864,2864,klimawandel,2
3443,33,Einwegplastik schadet den Meeresökosystemen erheblich.,,Bachelor,318432,1772821481430,1772821162998,6,Deutsch,80,5a7fab56f49c9a0001f3549e,69ab1aa3e777a4bcd0b26dbc,69a59a0dad1eb01904d9ba3f,3846,3846,plastik,3
3443,33,Eine überwiegend pflanzliche Ernährung fördert die Gesundheit.,,Bachelor,318432,1772821481430,1772821162998,2,Deutsch,40,5a7fab56f49c9a0001f3549e,69ab1aa3e777a4bcd0b26dbc,69a59a0dad1eb01904d9ba3f,4024,4024,ernaehrung,4
3443,33,Ausreichend Schlaf ist entscheidend für die kognitive Leistungsfähigkeit.,,Bachelor,318432,1772821481430,1772821162998,5,Deutsch,100,5a7fab56f49c9a0001f3549e,69ab1aa3e777a4bcd0b26dbc,69a59a0dad1eb01904d9ba3f,3106,3106,schlaf,5
3443,33,Ein ausgebautes Nahverkehrsnetz entlastet den Stadtverkehr erheblich.,,Bachelor,318432,1772821481430,1772821162998,3,Deutsch,78,5a7fab56f49c9a0001f3549e,69ab1aa3e777a4bcd0b26dbc,69a59a0dad1eb01904d9ba3f,213776,213776,stadtverkehr,6
3443,33,Der Einkauf bei lokalen Händlern stärkt die regionale Wirtschaft nachhaltig.,,Bachelor,318432,1772821481430,1772821162998,8,Deutsch,68,5a7fab56f49c9a0001f3549e,69ab1aa3e777a4bcd0b26dbc,69a59a0dad1eb01904d9ba3f,74622,74622,lokalkauf,7
3443,33,Regelmäßige körperliche Bewegung senkt das Risiko für Herz-Kreislauf-Erkrankungen deutlich.,,Bachelor,318432,1772821481430,1772821162998,7,Deutsch,100,5a7fab56f49c9a0001f3549e,69ab1aa3e777a4bcd0b26dbc,69a59a0dad1eb01904d9ba3f,2922,2922,sport,8
3448,44,Der Einkauf bei lokalen Händlern stärkt die regionale Wirtschaft nachhaltig.,,Abitur,82858,1772821590677,1772821507819,8,Deutsch,80,69184ea6583d322e077ebe91,69ab1bfe9369517b0d00546b,69a59a0dad1eb01904d9ba3f,12204,28862,lokalkauf,1
3448,44,Eine überwiegend pflanzliche Ernährung fördert die Gesundheit.,,Abitur,82858,1772821590677,1772821507819,2,Deutsch,60,69184ea6583d322e077ebe91,69ab1bfe9369517b0d00546b,69a59a0dad1eb01904d9ba3f,7773,7773,ernaehrung,2
3448,44,Ausreichend Schlaf ist entscheidend für die kognitive Leistungsfähigkeit.,,Abitur,82858,1772821590677,1772821507819,5,Deutsch,100,69184ea6583d322e077ebe91,69ab1bfe9369517b0d00546b,69a59a0dad1eb01904d9ba3f,4931,4931,schlaf,3
3448,44,Regelmäßige körperliche Bewegung senkt das Risiko für Herz-Kreislauf-Erkrankungen deutlich.,,Abitur,82858,1772821590677,1772821507819,7,Deutsch,100,69184ea6583d322e077ebe91,69ab1bfe9369517b0d00546b,69a59a0dad1eb01904d9ba3f,5040,5040,sport,4
3448,44,Digitale Kompetenzen sind in der heutigen Arbeitswelt unverzichtbar.,,Abitur,82858,1772821590677,1772821507819,4,Deutsch,65,69184ea6583d322e077ebe91,69ab1bfe9369517b0d00546b,69a59a0dad1eb01904d9ba3f,4671,4671,digitalisierung,5
3448,44,Der Klimawandel wird durch menschliche Aktivitäten verursacht.,,Abitur,82858,1772821590677,1772821507819,1,Deutsch,50,69184ea6583d322e077ebe91,69ab1bfe9369517b0d00546b,69a59a0dad1eb01904d9ba3f,6556,6556,klimawandel,6
3448,44,Einwegplastik schadet den Meeresökosystemen erheblich.,,Abitur,82858,1772821590677,1772821507819,6,Deutsch,100,69184ea6583d322e077ebe91,69ab1bfe9369517b0d00546b,69a59a0dad1eb01904d9ba3f,4336,4336,plastik,7
3448,44,Ein ausgebautes Nahverkehrsnetz entlastet den Stadtverkehr erheblich.,,Abitur,82858,1772821590677,1772821507819,3,Deutsch,100,69184ea6583d322e077ebe91,69ab1bfe9369517b0d00546b,69a59a0dad1eb01904d9ba3f,6895,6895,stadtverkehr,8
3446,40,Der Klimawandel wird durch menschliche Aktivitäten verursacht.,,Bachelor,100198,1772821566745,1772821466547,1,Deutsch,70,6965770ab4a8023aaca9c49d,69ab1bd138fd4d78be9c32c0,69a59a0dad1eb01904d9ba3f,12196,22597,klimawandel,1
3446,40,Ausreichend Schlaf ist entscheidend für die kognitive Leistungsfähigkeit.,,Bachelor,100198,1772821566745,1772821466547,5,Deutsch,90,6965770ab4a8023aaca9c49d,69ab1bd138fd4d78be9c32c0,69a59a0dad1eb01904d9ba3f,11616,11616,schlaf,2
3446,40,Ein ausgebautes Nahverkehrsnetz entlastet den Stadtverkehr erheblich.,,Bachelor,100198,1772821566745,1772821466547,3,Deutsch,60,6965770ab4a8023aaca9c49d,69ab1bd138fd4d78be9c32c0,69a59a0dad1eb01904d9ba3f,7736,7736,stadtverkehr,3
3446,40,Eine überwiegend pflanzliche Ernährung fördert die Gesundheit.,,Bachelor,100198,1772821566745,1772821466547,2,Deutsch,40,6965770ab4a8023aaca9c49d,69ab1bd138fd4d78be9c32c0,69a59a0dad1eb01904d9ba3f,8968,8968,ernaehrung,4
3446,40,Digitale Kompetenzen sind in der heutigen Arbeitswelt unverzichtbar.,,Bachelor,100198,1772821566745,1772821466547,4,Deutsch,85,6965770ab4a8023aaca9c49d,69ab1bd138fd4d78be9c32c0,69a59a0dad1eb01904d9ba3f,7446,7446,digitalisierung,5
3446,40,Einwegplastik schadet den Meeresökosystemen erheblich.,,Bachelor,100198,1772821566745,1772821466547,6,Deutsch,83,6965770ab4a8023aaca9c49d,69ab1bd138fd4d78be9c32c0,69a59a0dad1eb01904d9ba3f,4188,4188,plastik,6
3446,40,Der Einkauf bei lokalen Händlern stärkt die regionale Wirtschaft nachhaltig.,,Bachelor,100198,1772821566745,1772821466547,8,Deutsch,80,6965770ab4a8023aaca9c49d,69ab1bd138fd4d78be9c32c0,69a59a0dad1eb01904d9ba3f,5413,5413,lokalkauf,7
3446,40,Regelmäßige körperliche Bewegung senkt das Risiko für Herz-Kreislauf-Erkrankungen deutlich.,,Bachelor,100198,1772821566745,1772821466547,7,Deutsch,93,6965770ab4a8023aaca9c49d,69ab1bd138fd4d78be9c32c0,69a59a0dad1eb01904d9ba3f,14228,14228,sport,8
3449,40,Regelmäßige körperliche Bewegung senkt das Risiko für Herz-Kreislauf-Erkrankungen deutlich.,,Bachelor,95576,1772821642702,1772821547126,7,Deutsch,100,5c8ab4225b8132001749d125,69ab1c084592d0ffcda21849,69a59a0dad1eb01904d9ba3f,6649,15312,sport,1
3449,40,Einwegplastik schadet den Meeresökosystemen erheblich.,,Bachelor,95576,1772821642702,1772821547126,6,Deutsch,90,5c8ab4225b8132001749d125,69ab1c084592d0ffcda21849,69a59a0dad1eb01904d9ba3f,9364,9364,plastik,2
3449,40,Der Einkauf bei lokalen Händlern stärkt die regionale Wirtschaft nachhaltig.,,Bachelor,95576,1772821642702,1772821547126,8,Deutsch,75,5c8ab4225b8132001749d125,69ab1c084592d0ffcda21849,69a59a0dad1eb01904d9ba3f,10086,10087,lokalkauf,3
3449,40,Eine überwiegend pflanzliche Ernährung fördert die Gesundheit.,,Bachelor,95576,1772821642702,1772821547126,2,Deutsch,30,5c8ab4225b8132001749d125,69ab1c084592d0ffcda21849,69a59a0dad1eb01904d9ba3f,13807,13806,ernaehrung,4
3449,40,Der Klimawandel wird durch menschliche Aktivitäten verursacht.,,Bachelor,95576,1772821642702,1772821547126,1,Deutsch,80,5c8ab4225b8132001749d125,69ab1c084592d0ffcda21849,69a59a0dad1eb01904d9ba3f,6608,6608,klimawandel,5
3449,40,Digitale Kompetenzen sind in der heutigen Arbeitswelt unverzichtbar.,,Bachelor,95576,1772821642702,1772821547126,4,Deutsch,70,5c8ab4225b8132001749d125,69ab1c084592d0ffcda21849,69a59a0dad1eb01904d9ba3f,9761,9761,digitalisierung,6
3449,40,Ausreichend Schlaf ist entscheidend für die kognitive Leistungsfähigkeit.,,Bachelor,95576,1772821642702,1772821547126,5,Deutsch,95,5c8ab4225b8132001749d125,69ab1c084592d0ffcda21849,69a59a0dad1eb01904d9ba3f,11338,11338,schlaf,7
3449,40,Ein ausgebautes Nahverkehrsnetz entlastet den Stadtverkehr erheblich.,,Bachelor,95576,1772821642702,1772821547126,3,Deutsch,60,5c8ab4225b8132001749d125,69ab1c084592d0ffcda21849,69a59a0dad1eb01904d9ba3f,5186,5186,stadtverkehr,8
3450,25,Ein ausgebautes Nahverkehrsnetz entlastet den Stadtverkehr erheblich.,,Bachelor,157578,1772821743324,1772821585746,3,Deutsch,100,6977d527f57ac6ec993a59d9,69ab1c4844db2fe3ee923a76,69a59a0dad1eb01904d9ba3f,7299,21602,stadtverkehr,1
3450,25,Ausreichend Schlaf ist entscheidend für die kognitive Leistungsfähigkeit.,,Bachelor,157578,1772821743324,1772821585746,5,Deutsch,100,6977d527f57ac6ec993a59d9,69ab1c4844db2fe3ee923a76,69a59a0dad1eb01904d9ba3f,2853,2853,schlaf,2
3450,25,Digitale Kompetenzen sind in der heutigen Arbeitswelt unverzichtbar.,,Bachelor,157578,1772821743324,1772821585746,4,Deutsch,70,6977d527f57ac6ec993a59d9,69ab1c4844db2fe3ee923a76,69a59a0dad1eb01904d9ba3f,6212,6213,digitalisierung,3
3450,25,Einwegplastik schadet den Meeresökosystemen erheblich.,,Bachelor,157578,1772821743324,1772821585746,6,Deutsch,60,6977d527f57ac6ec993a59d9,69ab1c4844db2fe3ee923a76,69a59a0dad1eb01904d9ba3f,6564,6564,plastik,4
3450,25,Eine überwiegend pflanzliche Ernährung fördert die Gesundheit.,,Bachelor,157578,1772821743324,1772821585746,2,Deutsch,40,6977d527f57ac6ec993a59d9,69ab1c4844db2fe3ee923a76,69a59a0dad1eb01904d9ba3f,59511,59511,ernaehrung,5
3450,25,Der Klimawandel wird durch menschliche Aktivitäten verursacht.,,Bachelor,157578,1772821743324,1772821585746,1,Deutsch,60,6977d527f57ac6ec993a59d9,69ab1c4844db2fe3ee923a76,69a59a0dad1eb01904d9ba3f,10904,10904,klimawandel,6
3450,25,Der Einkauf bei lokalen Händlern stärkt die regionale Wirtschaft nachhaltig.,,Bachelor,157578,1772821743324,1772821585746,8,Deutsch,55,6977d527f57ac6ec993a59d9,69ab1c4844db2fe3ee923a76,69a59a0dad1eb01904d9ba3f,16425,16425,lokalkauf,7
3450,25,Regelmäßige körperliche Bewegung senkt das Risiko für Herz-Kreislauf-Erkrankungen deutlich.,,Bachelor,157578,1772821743324,1772821585746,7,Deutsch,97,6977d527f57ac6ec993a59d9,69ab1c4844db2fe3ee923a76,69a59a0dad1eb01904d9ba3f,22749,22749,sport,8
3451,38,Ein ausgebautes Nahverkehrsnetz entlastet den Stadtverkehr erheblich.,,Bachelor,123186,1772821745006,1772821621820,3,deutsch,90,69944570096a705d408d3e8b,69ab1c07d8a46e757545f909,69a59a0dad1eb01904d9ba3f,11664,25176,stadtverkehr,1
3451,38,Regelmäßige körperliche Bewegung senkt das Risiko für Herz-Kreislauf-Erkrankungen deutlich.,,Bachelor,123186,1772821745006,1772821621820,7,deutsch,80,69944570096a705d408d3e8b,69ab1c07d8a46e757545f909,69a59a0dad1eb01904d9ba3f,8976,8976,sport,2
3451,38,Digitale Kompetenzen sind in der heutigen Arbeitswelt unverzichtbar.,,Bachelor,123186,1772821745006,1772821621820,4,deutsch,60,69944570096a705d408d3e8b,69ab1c07d8a46e757545f909,69a59a0dad1eb01904d9ba3f,11047,11048,digitalisierung,3
3451,38,Der Klimawandel wird durch menschliche Aktivitäten verursacht.,,Bachelor,123186,1772821745006,1772821621820,1,deutsch,60,69944570096a705d408d3e8b,69ab1c07d8a46e757545f909,69a59a0dad1eb01904d9ba3f,10105,10105,klimawandel,4
3451,38,Eine überwiegend pflanzliche Ernährung fördert die Gesundheit.,,Bachelor,123186,1772821745006,1772821621820,2,deutsch,30,69944570096a705d408d3e8b,69ab1c07d8a46e757545f909,69a59a0dad1eb01904d9ba3f,7922,7922,ernaehrung,5
3451,38,Der Einkauf bei lokalen Händlern stärkt die regionale Wirtschaft nachhaltig.,,Bachelor,123186,1772821745006,1772821621820,8,deutsch,70,69944570096a705d408d3e8b,69ab1c07d8a46e757545f909,69a59a0dad1eb01904d9ba3f,8189,8188,lokalkauf,6
3451,38,Einwegplastik schadet den Meeresökosystemen erheblich.,,Bachelor,123186,1772821745006,1772821621820,6,deutsch,65,69944570096a705d408d3e8b,69ab1c07d8a46e757545f909,69a59a0dad1eb01904d9ba3f,23341,23340,plastik,7
3451,38,Ausreichend Schlaf ist entscheidend für die kognitive Leistungsfähigkeit.,,Bachelor,123186,1772821745006,1772821621820,5,deutsch,75,69944570096a705d408d3e8b,69ab1c07d8a46e757545f909,69a59a0dad1eb01904d9ba3f,8513,8513,schlaf,8
3452,27,Regelmäßige körperliche Bewegung senkt das Risiko für Herz-Kreislauf-Erkrankungen deutlich.,,Höherer Abschluss,89321,1772821799705,1772821710384,7,Deutsch,80,697f68a6aa25acdd2178bc02,69ab1cc7d0b92add83d6d731,69a59a0dad1eb01904d9ba3f,8618,22539,sport,1
3452,27,Ein ausgebautes Nahverkehrsnetz entlastet den Stadtverkehr erheblich.,,Höherer Abschluss,89321,1772821799705,1772821710384,3,Deutsch,36,697f68a6aa25acdd2178bc02,69ab1cc7d0b92add83d6d731,69a59a0dad1eb01904d9ba3f,11282,11282,stadtverkehr,2
3452,27,Ausreichend Schlaf ist entscheidend für die kognitive Leistungsfähigkeit.,,Höherer Abschluss,89321,1772821799705,1772821710384,5,Deutsch,63,697f68a6aa25acdd2178bc02,69ab1cc7d0b92add83d6d731,69a59a0dad1eb01904d9ba3f,5174,5174,schlaf,3
3452,27,Eine überwiegend pflanzliche Ernährung fördert die Gesundheit.,,Höherer Abschluss,89321,1772821799705,1772821710384,2,Deutsch,13,697f68a6aa25acdd2178bc02,69ab1cc7d0b92add83d6d731,69a59a0dad1eb01904d9ba3f,12314,12314,ernaehrung,4
3452,27,Einwegplastik schadet den Meeresökosystemen erheblich.,,Höherer Abschluss,89321,1772821799705,1772821710384,6,Deutsch,92,697f68a6aa25acdd2178bc02,69ab1cc7d0b92add83d6d731,69a59a0dad1eb01904d9ba3f,4909,4909,plastik,5
3452,27,Digitale Kompetenzen sind in der heutigen Arbeitswelt unverzichtbar.,,Höherer Abschluss,89321,1772821799705,1772821710384,4,Deutsch,56,697f68a6aa25acdd2178bc02,69ab1cc7d0b92add83d6d731,69a59a0dad1eb01904d9ba3f,8937,8937,digitalisierung,6
3452,27,Der Einkauf bei lokalen Händlern stärkt die regionale Wirtschaft nachhaltig.,,Höherer Abschluss,89321,1772821799705,1772821710384,8,Deutsch,84,697f68a6aa25acdd2178bc02,69ab1cc7d0b92add83d6d731,69a59a0dad1eb01904d9ba3f,5107,5107,lokalkauf,7
3452,27,Der Klimawandel wird durch menschliche Aktivitäten verursacht.,,Höherer Abschluss,89321,1772821799705,1772821710384,1,Deutsch,60,697f68a6aa25acdd2178bc02,69ab1cc7d0b92add83d6d731,69a59a0dad1eb01904d9ba3f,5758,5758,klimawandel,8
3453,39,Einwegplastik schadet den Meeresökosystemen erheblich.,,Bachelor,101246,1772821819313,1772821718067,6,Deutsch,90,6928612fa15cd5d4418eb2b9,69ab1ccdf9817840980721af,69a59a0dad1eb01904d9ba3f,11814,24636,plastik,1
3453,39,Regelmäßige körperliche Bewegung senkt das Risiko für Herz-Kreislauf-Erkrankungen deutlich.,,Bachelor,101246,1772821819313,1772821718067,7,Deutsch,85,6928612fa15cd5d4418eb2b9,69ab1ccdf9817840980721af,69a59a0dad1eb01904d9ba3f,9332,9332,sport,2
3453,39,Der Klimawandel wird durch menschliche Aktivitäten verursacht.,,Bachelor,101246,1772821819313,1772821718067,1,Deutsch,65,6928612fa15cd5d4418eb2b9,69ab1ccdf9817840980721af,69a59a0dad1eb01904d9ba3f,8128,8128,klimawandel,3
3453,39,Eine überwiegend pflanzliche Ernährung fördert die Gesundheit.,,Bachelor,101246,1772821819313,1772821718067,2,Deutsch,55,6928612fa15cd5d4418eb2b9,69ab1ccdf9817840980721af,69a59a0dad1eb01904d9ba3f,11336,11336,ernaehrung,4
3453,39,Ein ausgebautes Nahverkehrsnetz entlastet den Stadtverkehr erheblich.,,Bachelor,101246,1772821819313,1772821718067,3,Deutsch,80,6928612fa15cd5d4418eb2b9,69ab1ccdf9817840980721af,69a59a0dad1eb01904d9ba3f,8448,8448,stadtverkehr,5
3453,39,Ausreichend Schlaf ist entscheidend für die kognitive Leistungsfähigkeit.,,Bachelor,101246,1772821819313,1772821718067,5,Deutsch,85,6928612fa15cd5d4418eb2b9,69ab1ccdf9817840980721af,69a59a0dad1eb01904d9ba3f,11950,11950,schlaf,6
3453,39,Digitale Kompetenzen sind in der heutigen Arbeitswelt unverzichtbar.,,Bachelor,101246,1772821819313,1772821718067,4,Deutsch,80,6928612fa15cd5d4418eb2b9,69ab1ccdf9817840980721af,69a59a0dad1eb01904d9ba3f,8177,8178,digitalisierung,7
3453,39,Der Einkauf bei lokalen Händlern stärkt die regionale Wirtschaft nachhaltig.,,Bachelor,101246,1772821819313,1772821718067,8,Deutsch,75,6928612fa15cd5d4418eb2b9,69ab1ccdf9817840980721af,69a59a0dad1eb01904d9ba3f,6549,6549,lokalkauf,8
3454,31,Der Einkauf bei lokalen Händlern stärkt die regionale Wirtschaft nachhaltig.,,Abitur,98765,1772821820372,1772821721607,8,deutsch,100,6930a93976bef6bc60f05a34,69ab1cd08c8883454a45f90e,69a59a0dad1eb01904d9ba3f,12819,45561,lokalkauf,1
3454,31,Ein ausgebautes Nahverkehrsnetz entlastet den Stadtverkehr erheblich.,,Abitur,98765,1772821820372,1772821721607,3,deutsch,81,6930a93976bef6bc60f05a34,69ab1cd08c8883454a45f90e,69a59a0dad1eb01904d9ba3f,8231,8231,stadtverkehr,2
3454,31,Ausreichend Schlaf ist entscheidend für die kognitive Leistungsfähigkeit.,,Abitur,98765,1772821820372,1772821721607,5,deutsch,100,6930a93976bef6bc60f05a34,69ab1cd08c8883454a45f90e,69a59a0dad1eb01904d9ba3f,4687,4687,schlaf,3
3454,31,Einwegplastik schadet den Meeresökosystemen erheblich.,,Abitur,98765,1772821820372,1772821721607,6,deutsch,100,6930a93976bef6bc60f05a34,69ab1cd08c8883454a45f90e,69a59a0dad1eb01904d9ba3f,3609,3609,plastik,4
3454,31,Digitale Kompetenzen sind in der heutigen Arbeitswelt unverzichtbar.,,Abitur,98765,1772821820372,1772821721607,4,deutsch,100,6930a93976bef6bc60f05a34,69ab1cd08c8883454a45f90e,69a59a0dad1eb01904d9ba3f,4439,4439,digitalisierung,5
3454,31,Der Klimawandel wird durch menschliche Aktivitäten verursacht.,,Abitur,98765,1772821820372,1772821721607,1,deutsch,80,6930a93976bef6bc60f05a34,69ab1cd08c8883454a45f90e,69a59a0dad1eb01904d9ba3f,6160,6160,klimawandel,6
3454,31,Regelmäßige körperliche Bewegung senkt das Risiko für Herz-Kreislauf-Erkrankungen deutlich.,,Abitur,98765,1772821820372,1772821721607,7,deutsch,100,6930a93976bef6bc60f05a34,69ab1cd08c8883454a45f90e,69a59a0dad1eb01904d9ba3f,3244,3244,sport,7
3454,31,Eine überwiegend pflanzliche Ernährung fördert die Gesundheit.,,Abitur,98765,1772821820372,1772821721607,2,deutsch,49,6930a93976bef6bc60f05a34,69ab1cd08c8883454a45f90e,69a59a0dad1eb01904d9ba3f,8853,8853,ernaehrung,8
3455,18,Digitale Kompetenzen sind in der heutigen Arbeitswelt unverzichtbar.,,Abitur,50911,1772821834193,1772821783282,4,Deutsch,100,69653fb3908011c59acaa123,69ab1d12ae451d1a7ad6d714,69a59a0dad1eb01904d9ba3f,8374,11576,digitalisierung,1
3455,18,Ein ausgebautes Nahverkehrsnetz entlastet den Stadtverkehr erheblich.,,Abitur,50911,1772821834193,1772821783282,3,Deutsch,70,69653fb3908011c59acaa123,69ab1d12ae451d1a7ad6d714,69a59a0dad1eb01904d9ba3f,7409,7409,stadtverkehr,2
3455,18,Regelmäßige körperliche Bewegung senkt das Risiko für Herz-Kreislauf-Erkrankungen deutlich.,,Abitur,50911,1772821834193,1772821783282,7,Deutsch,100,69653fb3908011c59acaa123,69ab1d12ae451d1a7ad6d714,69a59a0dad1eb01904d9ba3f,2915,2916,sport,3
3455,18,Eine überwiegend pflanzliche Ernährung fördert die Gesundheit.,,Abitur,50911,1772821834193,1772821783282,2,Deutsch,50,69653fb3908011c59acaa123,69ab1d12ae451d1a7ad6d714,69a59a0dad1eb01904d9ba3f,4138,4138,ernaehrung,4
3455,18,Einwegplastik schadet den Meeresökosystemen erheblich.,,Abitur,50911,1772821834193,1772821783282,6,Deutsch,100,69653fb3908011c59acaa123,69ab1d12ae451d1a7ad6d714,69a59a0dad1eb01904d9ba3f,4416,4416,plastik,5
3455,18,Der Klimawandel wird durch menschliche Aktivitäten verursacht.,,Abitur,50911,1772821834193,1772821783282,1,Deutsch,100,69653fb3908011c59acaa123,69ab1d12ae451d1a7ad6d714,69a59a0dad1eb01904d9ba3f,2193,2194,klimawandel,6
3455,18,Der Einkauf bei lokalen Händlern stärkt die regionale Wirtschaft nachhaltig.,,Abitur,50911,1772821834193,1772821783282,8,Deutsch,80,69653fb3908011c59acaa123,69ab1d12ae451d1a7ad6d714,69a59a0dad1eb01904d9ba3f,7111,7111,lokalkauf,7
3455,18,Ausreichend Schlaf ist entscheidend für die kognitive Leistungsfähigkeit.,,Abitur,50911,1772821834193,1772821783282,5,Deutsch,100,69653fb3908011c59acaa123,69ab1d12ae451d1a7ad6d714,69a59a0dad1eb01904d9ba3f,4130,4131,schlaf,8
3456,30,Eine überwiegend pflanzliche Ernährung fördert die Gesundheit.,,Bachelor,54982,1772821846085,1772821791103,2,Deutsch,86,5be30d2451ed78000195c6b6,69ab1d1984b1b0b661fb3131,69a59a0dad1eb01904d9ba3f,8329,9649,ernaehrung,1
3456,30,Der Klimawandel wird durch menschliche Aktivitäten verursacht.,,Bachelor,54982,1772821846085,1772821791103,1,Deutsch,93,5be30d2451ed78000195c6b6,69ab1d1984b1b0b661fb3131,69a59a0dad1eb01904d9ba3f,6731,6731,klimawandel,2
3456,30,Digitale Kompetenzen sind in der heutigen Arbeitswelt unverzichtbar.,,Bachelor,54982,1772821846085,1772821791103,4,Deutsch,100,5be30d2451ed78000195c6b6,69ab1d1984b1b0b661fb3131,69a59a0dad1eb01904d9ba3f,4993,4993,digitalisierung,3
3456,30,Ein ausgebautes Nahverkehrsnetz entlastet den Stadtverkehr erheblich.,,Bachelor,54982,1772821846085,1772821791103,3,Deutsch,85,5be30d2451ed78000195c6b6,69ab1d1984b1b0b661fb3131,69a59a0dad1eb01904d9ba3f,4490,4490,stadtverkehr,4
3456,30,Einwegplastik schadet den Meeresökosystemen erheblich.,,Bachelor,54982,1772821846085,1772821791103,6,Deutsch,94,5be30d2451ed78000195c6b6,69ab1d1984b1b0b661fb3131,69a59a0dad1eb01904d9ba3f,4677,4677,plastik,5
3456,30,Ausreichend Schlaf ist entscheidend für die kognitive Leistungsfähigkeit.,,Bachelor,54982,1772821846085,1772821791103,5,Deutsch,100,5be30d2451ed78000195c6b6,69ab1d1984b1b0b661fb3131,69a59a0dad1eb01904d9ba3f,4380,4380,schlaf,6
3456,30,Regelmäßige körperliche Bewegung senkt das Risiko für Herz-Kreislauf-Erkrankungen deutlich.,,Bachelor,54982,1772821846085,1772821791103,7,Deutsch,100,5be30d2451ed78000195c6b6,69ab1d1984b1b0b661fb3131,69a59a0dad1eb01904d9ba3f,5765,5765,sport,7
3456,30,Der Einkauf bei lokalen Händlern stärkt die regionale Wirtschaft nachhaltig.,,Bachelor,54982,1772821846085,1772821791103,8,Deutsch,85,5be30d2451ed78000195c6b6,69ab1d1984b1b0b661fb3131,69a59a0dad1eb01904d9ba3f,5977,5977,lokalkauf,8
3457,43,Der Einkauf bei lokalen Händlern stärkt die regionale Wirtschaft nachhaltig.,,Abitur,94810,1772821863512,1772821768702,8,Deutsch,96,5bf3199ebe7c7300017b710a,69ab1d0232d6a3add8b79c5e,69a59a0dad1eb01904d9ba3f,12050,24764,lokalkauf,1
3457,43,Regelmäßige körperliche Bewegung senkt das Risiko für Herz-Kreislauf-Erkrankungen deutlich.,,Abitur,94810,1772821863512,1772821768702,7,Deutsch,95,5bf3199ebe7c7300017b710a,69ab1d0232d6a3add8b79c5e,69a59a0dad1eb01904d9ba3f,6432,6433,sport,2
3457,43,Ausreichend Schlaf ist entscheidend für die kognitive Leistungsfähigkeit.,,Abitur,94810,1772821863512,1772821768702,5,Deutsch,95,5bf3199ebe7c7300017b710a,69ab1d0232d6a3add8b79c5e,69a59a0dad1eb01904d9ba3f,5182,5182,schlaf,3
3457,43,Einwegplastik schadet den Meeresökosystemen erheblich.,,Abitur,94810,1772821863512,1772821768702,6,Deutsch,89,5bf3199ebe7c7300017b710a,69ab1d0232d6a3add8b79c5e,69a59a0dad1eb01904d9ba3f,7023,7023,plastik,4
3457,43,Eine überwiegend pflanzliche Ernährung fördert die Gesundheit.,,Abitur,94810,1772821863512,1772821768702,2,Deutsch,62,5bf3199ebe7c7300017b710a,69ab1d0232d6a3add8b79c5e,69a59a0dad1eb01904d9ba3f,13185,13184,ernaehrung,5
3457,43,Der Klimawandel wird durch menschliche Aktivitäten verursacht.,,Abitur,94810,1772821863512,1772821768702,1,Deutsch,84,5bf3199ebe7c7300017b710a,69ab1d0232d6a3add8b79c5e,69a59a0dad1eb01904d9ba3f,10606,10606,klimawandel,6
3457,43,Digitale Kompetenzen sind in der heutigen Arbeitswelt unverzichtbar.,,Abitur,94810,1772821863512,1772821768702,4,Deutsch,91,5bf3199ebe7c7300017b710a,69ab1d0232d6a3add8b79c5e,69a59a0dad1eb01904d9ba3f,7861,7861,digitalisierung,7
3457,43,Ein ausgebautes Nahverkehrsnetz entlastet den Stadtverkehr erheblich.,,Abitur,94810,1772821863512,1772821768702,3,Deutsch,84,5bf3199ebe7c7300017b710a,69ab1d0232d6a3add8b79c5e,69a59a0dad1eb01904d9ba3f,7029,7029,stadtverkehr,8
3458,34,Eine überwiegend pflanzliche Ernährung fördert die Gesundheit.,,Bachelor,179569,1772821892153,1772821712584,2,Deutsch,75,69738cbe793f453b78a7f271,69ab1cc54c00ef66e0c43ee5,69a59a0dad1eb01904d9ba3f,17787,36512,ernaehrung,1
3458,34,Der Klimawandel wird durch menschliche Aktivitäten verursacht.,,Bachelor,179569,1772821892153,1772821712584,1,Deutsch,80,69738cbe793f453b78a7f271,69ab1cc54c00ef66e0c43ee5,69a59a0dad1eb01904d9ba3f,10699,10699,klimawandel,2
3458,34,Ein ausgebautes Nahverkehrsnetz entlastet den Stadtverkehr erheblich.,,Bachelor,179569,1772821892153,1772821712584,3,Deutsch,80,69738cbe793f453b78a7f271,69ab1cc54c00ef66e0c43ee5,69a59a0dad1eb01904d9ba3f,12806,12806,stadtverkehr,3
3458,34,Ausreichend Schlaf ist entscheidend für die kognitive Leistungsfähigkeit.,,Bachelor,179569,1772821892153,1772821712584,5,Deutsch,90,69738cbe793f453b78a7f271,69ab1cc54c00ef66e0c43ee5,69a59a0dad1eb01904d9ba3f,13077,13077,schlaf,4
3458,34,Der Einkauf bei lokalen Händlern stärkt die regionale Wirtschaft nachhaltig.,,Bachelor,179569,1772821892153,1772821712584,8,Deutsch,60,69738cbe793f453b78a7f271,69ab1cc54c00ef66e0c43ee5,69a59a0dad1eb01904d9ba3f,12693,12693,lokalkauf,5
3458,34,Digitale Kompetenzen sind in der heutigen Arbeitswelt unverzichtbar.,,Bachelor,179569,1772821892153,1772821712584,4,Deutsch,70,69738cbe793f453b78a7f271,69ab1cc54c00ef66e0c43ee5,69a59a0dad1eb01904d9ba3f,9338,9338,digitalisierung,6
3458,34,Einwegplastik schadet den Meeresökosystemen erheblich.,,Bachelor,179569,1772821892153,1772821712584,6,Deutsch,90,69738cbe793f453b78a7f271,69ab1cc54c00ef66e0c43ee5,69a59a0dad1eb01904d9ba3f,8261,8261,plastik,7
3458,34,Regelmäßige körperliche Bewegung senkt das Risiko für Herz-Kreislauf-Erkrankungen deutlich.,,Bachelor,179569,1772821892153,1772821712584,7,Deutsch,90,69738cbe793f453b78a7f271,69ab1cc54c00ef66e0c43ee5,69a59a0dad1eb01904d9ba3f,10699,10699,sport,8
3459,28,Ausreichend Schlaf ist entscheidend für die kognitive Leistungsfähigkeit.,,Bachelor,68649,1772821896011,1772821827362,5,deutsch,79,61545686d49a33dab8587297,69ab1d3c8a8a92977d9c32dc,69a59a0dad1eb01904d9ba3f,5422,18550,schlaf,1
3459,28,Eine überwiegend pflanzliche Ernährung fördert die Gesundheit.,,Bachelor,68649,1772821896011,1772821827362,2,deutsch,35,61545686d49a33dab8587297,69ab1d3c8a8a92977d9c32dc,69a59a0dad1eb01904d9ba3f,6529,6529,ernaehrung,2
3459,28,Der Klimawandel wird durch menschliche Aktivitäten verursacht.,,Bachelor,68649,1772821896011,1772821827362,1,deutsch,96,61545686d49a33dab8587297,69ab1d3c8a8a92977d9c32dc,69a59a0dad1eb01904d9ba3f,6277,6277,klimawandel,3
3459,28,Regelmäßige körperliche Bewegung senkt das Risiko für Herz-Kreislauf-Erkrankungen deutlich.,,Bachelor,68649,1772821896011,1772821827362,7,deutsch,93,61545686d49a33dab8587297,69ab1d3c8a8a92977d9c32dc,69a59a0dad1eb01904d9ba3f,5269,5269,sport,4
3459,28,Einwegplastik schadet den Meeresökosystemen erheblich.,,Bachelor,68649,1772821896011,1772821827362,6,deutsch,88,61545686d49a33dab8587297,69ab1d3c8a8a92977d9c32dc,69a59a0dad1eb01904d9ba3f,5256,5256,plastik,5
3459,28,Ein ausgebautes Nahverkehrsnetz entlastet den Stadtverkehr erheblich.,,Bachelor,68649,1772821896011,1772821827362,3,deutsch,83,61545686d49a33dab8587297,69ab1d3c8a8a92977d9c32dc,69a59a0dad1eb01904d9ba3f,5463,5463,stadtverkehr,6
3459,28,Digitale Kompetenzen sind in der heutigen Arbeitswelt unverzichtbar.,,Bachelor,68649,1772821896011,1772821827362,4,deutsch,81,61545686d49a33dab8587297,69ab1d3c8a8a92977d9c32dc,69a59a0dad1eb01904d9ba3f,6580,6580,digitalisierung,7
3459,28,Der Einkauf bei lokalen Händlern stärkt die regionale Wirtschaft nachhaltig.,,Bachelor,68649,1772821896011,1772821827362,8,deutsch,96,61545686d49a33dab8587297,69ab1d3c8a8a92977d9c32dc,69a59a0dad1eb01904d9ba3f,4757,4757,lokalkauf,8
3462,44,Ein ausgebautes Nahverkehrsnetz entlastet den Stadtverkehr erheblich.,,Abitur,56061,1772821952345,1772821896284,3,deutsch,100,6996146e1d43f35c6655296c,69ab1d63e14657db76bef85f,69a59a0dad1eb01904d9ba3f,5923,13635,stadtverkehr,1
3462,44,Einwegplastik schadet den Meeresökosystemen erheblich.,,Abitur,56061,1772821952345,1772821896284,6,deutsch,100,6996146e1d43f35c6655296c,69ab1d63e14657db76bef85f,69a59a0dad1eb01904d9ba3f,4478,4478,plastik,2
3462,44,Eine überwiegend pflanzliche Ernährung fördert die Gesundheit.,,Abitur,56061,1772821952345,1772821896284,2,deutsch,76,6996146e1d43f35c6655296c,69ab1d63e14657db76bef85f,69a59a0dad1eb01904d9ba3f,5163,5163,ernaehrung,3
3462,44,Der Einkauf bei lokalen Händlern stärkt die regionale Wirtschaft nachhaltig.,,Abitur,56061,1772821952345,1772821896284,8,deutsch,100,6996146e1d43f35c6655296c,69ab1d63e14657db76bef85f,69a59a0dad1eb01904d9ba3f,2904,2905,lokalkauf,4
3462,44,Regelmäßige körperliche Bewegung senkt das Risiko für Herz-Kreislauf-Erkrankungen deutlich.,,Abitur,56061,1772821952345,1772821896284,7,deutsch,100,6996146e1d43f35c6655296c,69ab1d63e14657db76bef85f,69a59a0dad1eb01904d9ba3f,3137,3137,sport,5
3462,44,Ausreichend Schlaf ist entscheidend für die kognitive Leistungsfähigkeit.,,Abitur,56061,1772821952345,1772821896284,5,deutsch,100,6996146e1d43f35c6655296c,69ab1d63e14657db76bef85f,69a59a0dad1eb01904d9ba3f,3078,3078,schlaf,6
3462,44,Digitale Kompetenzen sind in der heutigen Arbeitswelt unverzichtbar.,,Abitur,56061,1772821952345,1772821896284,4,deutsch,84,6996146e1d43f35c6655296c,69ab1d63e14657db76bef85f,69a59a0dad1eb01904d9ba3f,4693,4692,digitalisierung,7
3462,44,Der Klimawandel wird durch menschliche Aktivitäten verursacht.,,Abitur,56061,1772821952345,1772821896284,1,deutsch,50,6996146e1d43f35c6655296c,69ab1d63e14657db76bef85f,69a59a0dad1eb01904d9ba3f,7334,7334,klimawandel,8
3460,61,Ausreichend Schlaf ist entscheidend für die kognitive Leistungsfähigkeit.,,Abitur,147421,1772821907680,1772821760259,5,Deutsch,90,5bddcf362562330001b93076,69ab1cf309e3ad58de7a9c79,69a59a0dad1eb01904d9ba3f,14872,32092,schlaf,1
3460,61,Der Einkauf bei lokalen Händlern stärkt die regionale Wirtschaft nachhaltig.,,Abitur,147421,1772821907680,1772821760259,8,Deutsch,80,5bddcf362562330001b93076,69ab1cf309e3ad58de7a9c79,69a59a0dad1eb01904d9ba3f,15214,15214,lokalkauf,2
3460,61,Der Klimawandel wird durch menschliche Aktivitäten verursacht.,,Abitur,147421,1772821907680,1772821760259,1,Deutsch,60,5bddcf362562330001b93076,69ab1cf309e3ad58de7a9c79,69a59a0dad1eb01904d9ba3f,14959,14959,klimawandel,3
3460,61,Einwegplastik schadet den Meeresökosystemen erheblich.,,Abitur,147421,1772821907680,1772821760259,6,Deutsch,85,5bddcf362562330001b93076,69ab1cf309e3ad58de7a9c79,69a59a0dad1eb01904d9ba3f,12820,12821,plastik,4
3460,61,Eine überwiegend pflanzliche Ernährung fördert die Gesundheit.,,Abitur,147421,1772821907680,1772821760259,2,Deutsch,10,5bddcf362562330001b93076,69ab1cf309e3ad58de7a9c79,69a59a0dad1eb01904d9ba3f,16387,16387,ernaehrung,5
3460,61,Regelmäßige körperliche Bewegung senkt das Risiko für Herz-Kreislauf-Erkrankungen deutlich.,,Abitur,147421,1772821907680,1772821760259,7,Deutsch,95,5bddcf362562330001b93076,69ab1cf309e3ad58de7a9c79,69a59a0dad1eb01904d9ba3f,8362,8362,sport,6
3460,61,Digitale Kompetenzen sind in der heutigen Arbeitswelt unverzichtbar.,,Abitur,147421,1772821907680,1772821760259,4,Deutsch,97,5bddcf362562330001b93076,69ab1cf309e3ad58de7a9c79,69a59a0dad1eb01904d9ba3f,8133,8133,digitalisierung,7
3460,61,Ein ausgebautes Nahverkehrsnetz entlastet den Stadtverkehr erheblich.,,Abitur,147421,1772821907680,1772821760259,3,Deutsch,30,5bddcf362562330001b93076,69ab1cf309e3ad58de7a9c79,69a59a0dad1eb01904d9ba3f,11902,11902,stadtverkehr,8
3461,27,Der Klimawandel wird durch menschliche Aktivitäten verursacht.,,Bachelor,118151,1772821934235,1772821816084,1,Deutsch,70,69726c926743129f083700be,69ab1d2457bc35011c6b6d8d,69a59a0dad1eb01904d9ba3f,15434,27672,klimawandel,1
3461,27,Der Einkauf bei lokalen Händlern stärkt die regionale Wirtschaft nachhaltig.,,Bachelor,118151,1772821934235,1772821816084,8,Deutsch,25,69726c926743129f083700be,69ab1d2457bc35011c6b6d8d,69a59a0dad1eb01904d9ba3f,18363,18363,lokalkauf,2
3461,27,Digitale Kompetenzen sind in der heutigen Arbeitswelt unverzichtbar.,,Bachelor,118151,1772821934235,1772821816084,4,Deutsch,86,69726c926743129f083700be,69ab1d2457bc35011c6b6d8d,69a59a0dad1eb01904d9ba3f,6050,6050,digitalisierung,3
3461,27,Ein ausgebautes Nahverkehrsnetz entlastet den Stadtverkehr erheblich.,,Bachelor,118151,1772821934235,1772821816084,3,Deutsch,40,69726c926743129f083700be,69ab1d2457bc35011c6b6d8d,69a59a0dad1eb01904d9ba3f,17199,17199,stadtverkehr,4
3461,27,Einwegplastik schadet den Meeresökosystemen erheblich.,,Bachelor,118151,1772821934235,1772821816084,6,Deutsch,80,69726c926743129f083700be,69ab1d2457bc35011c6b6d8d,69a59a0dad1eb01904d9ba3f,9114,9114,plastik,5
3461,27,Ausreichend Schlaf ist entscheidend für die kognitive Leistungsfähigkeit.,,Bachelor,118151,1772821934235,1772821816084,5,Deutsch,20,69726c926743129f083700be,69ab1d2457bc35011c6b6d8d,69a59a0dad1eb01904d9ba3f,9420,9419,schlaf,6
3461,27,Eine überwiegend pflanzliche Ernährung fördert die Gesundheit.,,Bachelor,118151,1772821934235,1772821816084,2,Deutsch,40,69726c926743129f083700be,69ab1d2457bc35011c6b6d8d,69a59a0dad1eb01904d9ba3f,8243,8243,ernaehrung,7
3461,27,Regelmäßige körperliche Bewegung senkt das Risiko für Herz-Kreislauf-Erkrankungen deutlich.,,Bachelor,118151,1772821934235,1772821816084,7,Deutsch,71,69726c926743129f083700be,69ab1d2457bc35011c6b6d8d,69a59a0dad1eb01904d9ba3f,8467,8467,sport,8
3463,22,Ein ausgebautes Nahverkehrsnetz entlastet den Stadtverkehr erheblich.,,Bachelor,61339,1772821979913,1772821918574,3,Deutsch,17,697862d92855ead95c10fecf,69ab1d926671bae48d4c1872,69a59a0dad1eb01904d9ba3f,12296,22649,stadtverkehr,1
3463,22,Der Klimawandel wird durch menschliche Aktivitäten verursacht.,,Bachelor,61339,1772821979913,1772821918574,1,Deutsch,82,697862d92855ead95c10fecf,69ab1d926671bae48d4c1872,69a59a0dad1eb01904d9ba3f,4050,4050,klimawandel,2
3463,22,Regelmäßige körperliche Bewegung senkt das Risiko für Herz-Kreislauf-Erkrankungen deutlich.,,Bachelor,61339,1772821979913,1772821918574,7,Deutsch,26,697862d92855ead95c10fecf,69ab1d926671bae48d4c1872,69a59a0dad1eb01904d9ba3f,3867,3868,sport,3
3463,22,Einwegplastik schadet den Meeresökosystemen erheblich.,,Bachelor,61339,1772821979913,1772821918574,6,Deutsch,62,697862d92855ead95c10fecf,69ab1d926671bae48d4c1872,69a59a0dad1eb01904d9ba3f,3978,3978,plastik,4
3463,22,Digitale Kompetenzen sind in der heutigen Arbeitswelt unverzichtbar.,,Bachelor,61339,1772821979913,1772821918574,4,Deutsch,54,697862d92855ead95c10fecf,69ab1d926671bae48d4c1872,69a59a0dad1eb01904d9ba3f,3634,3634,digitalisierung,5
3463,22,Der Einkauf bei lokalen Händlern stärkt die regionale Wirtschaft nachhaltig.,,Bachelor,61339,1772821979913,1772821918574,8,Deutsch,29,697862d92855ead95c10fecf,69ab1d926671bae48d4c1872,69a59a0dad1eb01904d9ba3f,4492,4492,lokalkauf,6
3463,22,Eine überwiegend pflanzliche Ernährung fördert die Gesundheit.,,Bachelor,61339,1772821979913,1772821918574,2,Deutsch,19,697862d92855ead95c10fecf,69ab1d926671bae48d4c1872,69a59a0dad1eb01904d9ba3f,4375,4375,ernaehrung,7
3463,22,Ausreichend Schlaf ist entscheidend für die kognitive Leistungsfähigkeit.,,Bachelor,61339,1772821979913,1772821918574,5,Deutsch,40,697862d92855ead95c10fecf,69ab1d926671bae48d4c1872,69a59a0dad1eb01904d9ba3f,3554,3554,schlaf,8
3464,34,Ausreichend Schlaf ist entscheidend für die kognitive Leistungsfähigkeit.,,Bachelor,95301,1772822082856,1772821987555,5,Deutsch,100,6921c192b63a8b19b4477190,69ab1ddc5fb05e2cc3e7c750,69a59a0dad1eb01904d9ba3f,4680,12469,schlaf,1
3464,34,Der Einkauf bei lokalen Händlern stärkt die regionale Wirtschaft nachhaltig.,,Bachelor,95301,1772822082856,1772821987555,8,Deutsch,95,6921c192b63a8b19b4477190,69ab1ddc5fb05e2cc3e7c750,69a59a0dad1eb01904d9ba3f,5976,5976,lokalkauf,2
3464,34,Einwegplastik schadet den Meeresökosystemen erheblich.,,Bachelor,95301,1772822082856,1772821987555,6,Deutsch,90,6921c192b63a8b19b4477190,69ab1ddc5fb05e2cc3e7c750,69a59a0dad1eb01904d9ba3f,11419,11419,plastik,3
3464,34,Ein ausgebautes Nahverkehrsnetz entlastet den Stadtverkehr erheblich.,,Bachelor,95301,1772822082856,1772821987555,3,Deutsch,85,6921c192b63a8b19b4477190,69ab1ddc5fb05e2cc3e7c750,69a59a0dad1eb01904d9ba3f,17915,17915,stadtverkehr,4
3464,34,Regelmäßige körperliche Bewegung senkt das Risiko für Herz-Kreislauf-Erkrankungen deutlich.,,Bachelor,95301,1772822082856,1772821987555,7,Deutsch,75,6921c192b63a8b19b4477190,69ab1ddc5fb05e2cc3e7c750,69a59a0dad1eb01904d9ba3f,15881,15881,sport,5
3464,34,Digitale Kompetenzen sind in der heutigen Arbeitswelt unverzichtbar.,,Bachelor,95301,1772822082856,1772821987555,4,Deutsch,99,6921c192b63a8b19b4477190,69ab1ddc5fb05e2cc3e7c750,69a59a0dad1eb01904d9ba3f,7856,7856,digitalisierung,6
3464,34,Eine überwiegend pflanzliche Ernährung fördert die Gesundheit.,,Bachelor,95301,1772822082856,1772821987555,2,Deutsch,20,6921c192b63a8b19b4477190,69ab1ddc5fb05e2cc3e7c750,69a59a0dad1eb01904d9ba3f,7673,7673,ernaehrung,7
3464,34,Der Klimawandel wird durch menschliche Aktivitäten verursacht.,,Bachelor,95301,1772822082856,1772821987555,1,Deutsch,75,6921c192b63a8b19b4477190,69ab1ddc5fb05e2cc3e7c750,69a59a0dad1eb01904d9ba3f,4190,4190,klimawandel,8
3465,36,Digitale Kompetenzen sind in der heutigen Arbeitswelt unverzichtbar.,,Abitur,85105,1772822099894,1772822014789,4,Deutsch,92,6914d4778fed31da9478c2cd,69ab1d3b6671bae48d4c1870,69a59a0dad1eb01904d9ba3f,9871,24918,digitalisierung,1
3465,36,Der Einkauf bei lokalen Händlern stärkt die regionale Wirtschaft nachhaltig.,,Abitur,85105,1772822099894,1772822014789,8,Deutsch,76,6914d4778fed31da9478c2cd,69ab1d3b6671bae48d4c1870,69a59a0dad1eb01904d9ba3f,9068,9068,lokalkauf,2
3465,36,Regelmäßige körperliche Bewegung senkt das Risiko für Herz-Kreislauf-Erkrankungen deutlich.,,Abitur,85105,1772822099894,1772822014789,7,Deutsch,100,6914d4778fed31da9478c2cd,69ab1d3b6671bae48d4c1870,69a59a0dad1eb01904d9ba3f,5819,5819,sport,3
3465,36,Der Klimawandel wird durch menschliche Aktivitäten verursacht.,,Abitur,85105,1772822099894,1772822014789,1,Deutsch,100,6914d4778fed31da9478c2cd,69ab1d3b6671bae48d4c1870,69a59a0dad1eb01904d9ba3f,9019,9019,klimawandel,4
3465,36,Einwegplastik schadet den Meeresökosystemen erheblich.,,Abitur,85105,1772822099894,1772822014789,6,Deutsch,98,6914d4778fed31da9478c2cd,69ab1d3b6671bae48d4c1870,69a59a0dad1eb01904d9ba3f,4084,4084,plastik,5
3465,36,Eine überwiegend pflanzliche Ernährung fördert die Gesundheit.,,Abitur,85105,1772822099894,1772822014789,2,Deutsch,80,6914d4778fed31da9478c2cd,69ab1d3b6671bae48d4c1870,69a59a0dad1eb01904d9ba3f,15196,15196,ernaehrung,6
3465,36,Ein ausgebautes Nahverkehrsnetz entlastet den Stadtverkehr erheblich.,,Abitur,85105,1772822099894,1772822014789,3,Deutsch,97,6914d4778fed31da9478c2cd,69ab1d3b6671bae48d4c1870,69a59a0dad1eb01904d9ba3f,4937,4937,stadtverkehr,7
3465,36,Ausreichend Schlaf ist entscheidend für die kognitive Leistungsfähigkeit.,,Abitur,85105,1772822099894,1772822014789,5,Deutsch,100,6914d4778fed31da9478c2cd,69ab1d3b6671bae48d4c1870,69a59a0dad1eb01904d9ba3f,4304,4304,schlaf,8
3466,33,Ausreichend Schlaf ist entscheidend für die kognitive Leistungsfähigkeit.,,Abitur,157363,1772822184065,1772822026702,5,German,100,6965544fb7b77673db060d00,69ab1af4f3ec88236c55346e,69a59a0dad1eb01904d9ba3f,6993,16445,schlaf,1
3466,33,Der Einkauf bei lokalen Händlern stärkt die regionale Wirtschaft nachhaltig.,,Abitur,157363,1772822184065,1772822026702,8,German,100,6965544fb7b77673db060d00,69ab1af4f3ec88236c55346e,69a59a0dad1eb01904d9ba3f,27284,27284,lokalkauf,2
3466,33,Einwegplastik schadet den Meeresökosystemen erheblich.,,Abitur,157363,1772822184065,1772822026702,6,German,100,6965544fb7b77673db060d00,69ab1af4f3ec88236c55346e,69a59a0dad1eb01904d9ba3f,5789,5790,plastik,3
3466,33,Ein ausgebautes Nahverkehrsnetz entlastet den Stadtverkehr erheblich.,,Abitur,157363,1772822184065,1772822026702,3,German,100,6965544fb7b77673db060d00,69ab1af4f3ec88236c55346e,69a59a0dad1eb01904d9ba3f,9063,9064,stadtverkehr,4
3466,33,Regelmäßige körperliche Bewegung senkt das Risiko für Herz-Kreislauf-Erkrankungen deutlich.,,Abitur,157363,1772822184065,1772822026702,7,German,100,6965544fb7b77673db060d00,69ab1af4f3ec88236c55346e,69a59a0dad1eb01904d9ba3f,5320,5320,sport,5
3466,33,Der Klimawandel wird durch menschliche Aktivitäten verursacht.,,Abitur,157363,1772822184065,1772822026702,1,German,90,6965544fb7b77673db060d00,69ab1af4f3ec88236c55346e,69a59a0dad1eb01904d9ba3f,17526,17525,klimawandel,6
3466,33,Eine überwiegend pflanzliche Ernährung fördert die Gesundheit.,,Abitur,157363,1772822184065,1772822026702,2,German,28,6965544fb7b77673db060d00,69ab1af4f3ec88236c55346e,69a59a0dad1eb01904d9ba3f,8061,8061,ernaehrung,7
3466,33,Digitale Kompetenzen sind in der heutigen Arbeitswelt unverzichtbar.,,Abitur,157363,1772822184065,1772822026702,4,German,80,6965544fb7b77673db060d00,69ab1af4f3ec88236c55346e,69a59a0dad1eb01904d9ba3f,8030,8030,digitalisierung,8
3467,33,Regelmäßige körperliche Bewegung senkt das Risiko für Herz-Kreislauf-Erkrankungen deutlich.,,kein Abitur,148463,1772822288093,1772822139630,7,Deutsch,100,6930b0e5117e5f031f4ba0a3,69ab1e73cd96a1138b19e36f,69a59a0dad1eb01904d9ba3f,6320,55199,sport,1
3467,33,Eine überwiegend pflanzliche Ernährung fördert die Gesundheit.,,kein Abitur,148463,1772822288093,1772822139630,2,Deutsch,10,6930b0e5117e5f031f4ba0a3,69ab1e73cd96a1138b19e36f,69a59a0dad1eb01904d9ba3f,5594,5594,ernaehrung,2
3467,33,Ausreichend Schlaf ist entscheidend für die kognitive Leistungsfähigkeit.,,kein Abitur,148463,1772822288093,1772822139630,5,Deutsch,70,6930b0e5117e5f031f4ba0a3,69ab1e73cd96a1138b19e36f,69a59a0dad1eb01904d9ba3f,9374,9374,schlaf,3
3467,33,Der Klimawandel wird durch menschliche Aktivitäten verursacht.,,kein Abitur,148463,1772822288093,1772822139630,1,Deutsch,50,6930b0e5117e5f031f4ba0a3,69ab1e73cd96a1138b19e36f,69a59a0dad1eb01904d9ba3f,7552,7552,klimawandel,4
3467,33,Ein ausgebautes Nahverkehrsnetz entlastet den Stadtverkehr erheblich.,,kein Abitur,148463,1772822288093,1772822139630,3,Deutsch,40,6930b0e5117e5f031f4ba0a3,69ab1e73cd96a1138b19e36f,69a59a0dad1eb01904d9ba3f,14199,14199,stadtverkehr,5
3467,33,Der Einkauf bei lokalen Händlern stärkt die regionale Wirtschaft nachhaltig.,,kein Abitur,148463,1772822288093,1772822139630,8,Deutsch,80,6930b0e5117e5f031f4ba0a3,69ab1e73cd96a1138b19e36f,69a59a0dad1eb01904d9ba3f,21685,21685,lokalkauf,6
3467,33,Digitale Kompetenzen sind in der heutigen Arbeitswelt unverzichtbar.,,kein Abitur,148463,1772822288093,1772822139630,4,Deutsch,75,6930b0e5117e5f031f4ba0a3,69ab1e73cd96a1138b19e36f,69a59a0dad1eb01904d9ba3f,13158,13158,digitalisierung,7
3467,33,Einwegplastik schadet den Meeresökosystemen erheblich.,,kein Abitur,148463,1772822288093,1772822139630,6,Deutsch,100,6930b0e5117e5f031f4ba0a3,69ab1e73cd96a1138b19e36f,69a59a0dad1eb01904d9ba3f,5926,5926,plastik,8
3468,43,Digitale Kompetenzen sind in der heutigen Arbeitswelt unverzichtbar.,,Bachelor,332221,1772822353663,1772822021442,4,Deutsch,86,58c537bfb101a7000129391a,69ab1dfe98b031643b0a0f63,69a59a0dad1eb01904d9ba3f,13720,275787,digitalisierung,1
3468,43,Einwegplastik schadet den Meeresökosystemen erheblich.,,Bachelor,332221,1772822353663,1772822021442,6,Deutsch,76,58c537bfb101a7000129391a,69ab1dfe98b031643b0a0f63,69a59a0dad1eb01904d9ba3f,7968,7968,plastik,2
3468,43,Ein ausgebautes Nahverkehrsnetz entlastet den Stadtverkehr erheblich.,,Bachelor,332221,1772822353663,1772822021442,3,Deutsch,71,58c537bfb101a7000129391a,69ab1dfe98b031643b0a0f63,69a59a0dad1eb01904d9ba3f,9103,9103,stadtverkehr,3
3468,43,Eine überwiegend pflanzliche Ernährung fördert die Gesundheit.,,Bachelor,332221,1772822353663,1772822021442,2,Deutsch,30,58c537bfb101a7000129391a,69ab1dfe98b031643b0a0f63,69a59a0dad1eb01904d9ba3f,6849,6849,ernaehrung,4
3468,43,Ausreichend Schlaf ist entscheidend für die kognitive Leistungsfähigkeit.,,Bachelor,332221,1772822353663,1772822021442,5,Deutsch,82,58c537bfb101a7000129391a,69ab1dfe98b031643b0a0f63,69a59a0dad1eb01904d9ba3f,5471,5471,schlaf,5
3468,43,Der Klimawandel wird durch menschliche Aktivitäten verursacht.,,Bachelor,332221,1772822353663,1772822021442,1,Deutsch,71,58c537bfb101a7000129391a,69ab1dfe98b031643b0a0f63,69a59a0dad1eb01904d9ba3f,5080,5081,klimawandel,6
3468,43,Der Einkauf bei lokalen Händlern stärkt die regionale Wirtschaft nachhaltig.,,Bachelor,332221,1772822353663,1772822021442,8,Deutsch,76,58c537bfb101a7000129391a,69ab1dfe98b031643b0a0f63,69a59a0dad1eb01904d9ba3f,6143,6144,lokalkauf,7
3468,43,Regelmäßige körperliche Bewegung senkt das Risiko für Herz-Kreislauf-Erkrankungen deutlich.,,Bachelor,332221,1772822353663,1772822021442,7,Deutsch,80,58c537bfb101a7000129391a,69ab1dfe98b031643b0a0f63,69a59a0dad1eb01904d9ba3f,4169,4169,sport,8
3471,32,Ausreichend Schlaf ist entscheidend für die kognitive Leistungsfähigkeit.,,Höherer Abschluss,108425,1772822417836,1772822309411,5,Deutsch,41,69429f52783b852351a68323,69ab1f2149d806f18f3bc97b,69a59a0dad1eb01904d9ba3f,16536,32093,schlaf,1
3471,32,Regelmäßige körperliche Bewegung senkt das Risiko für Herz-Kreislauf-Erkrankungen deutlich.,,Höherer Abschluss,108425,1772822417836,1772822309411,7,Deutsch,75,69429f52783b852351a68323,69ab1f2149d806f18f3bc97b,69a59a0dad1eb01904d9ba3f,15936,15936,sport,2
3471,32,Eine überwiegend pflanzliche Ernährung fördert die Gesundheit.,,Höherer Abschluss,108425,1772822417836,1772822309411,2,Deutsch,41,69429f52783b852351a68323,69ab1f2149d806f18f3bc97b,69a59a0dad1eb01904d9ba3f,7798,7798,ernaehrung,3
3471,32,Digitale Kompetenzen sind in der heutigen Arbeitswelt unverzichtbar.,,Höherer Abschluss,108425,1772822417836,1772822309411,4,Deutsch,82,69429f52783b852351a68323,69ab1f2149d806f18f3bc97b,69a59a0dad1eb01904d9ba3f,6246,6246,digitalisierung,4
3471,32,Der Einkauf bei lokalen Händlern stärkt die regionale Wirtschaft nachhaltig.,,Höherer Abschluss,108425,1772822417836,1772822309411,8,Deutsch,69,69429f52783b852351a68323,69ab1f2149d806f18f3bc97b,69a59a0dad1eb01904d9ba3f,5952,5952,lokalkauf,5
3471,32,Einwegplastik schadet den Meeresökosystemen erheblich.,,Höherer Abschluss,108425,1772822417836,1772822309411,6,Deutsch,58,69429f52783b852351a68323,69ab1f2149d806f18f3bc97b,69a59a0dad1eb01904d9ba3f,4933,4933,plastik,6
3471,32,Der Klimawandel wird durch menschliche Aktivitäten verursacht.,,Höherer Abschluss,108425,1772822417836,1772822309411,1,Deutsch,72,69429f52783b852351a68323,69ab1f2149d806f18f3bc97b,69a59a0dad1eb01904d9ba3f,4440,4440,klimawandel,7
3471,32,Ein ausgebautes Nahverkehrsnetz entlastet den Stadtverkehr erheblich.,,Höherer Abschluss,108425,1772822417836,1772822309411,3,Deutsch,76,69429f52783b852351a68323,69ab1f2149d806f18f3bc97b,69a59a0dad1eb01904d9ba3f,9338,9338,stadtverkehr,8
3482,26,Einwegplastik schadet den Meeresökosystemen erheblich.,,Bachelor,55362,1772823093918,1772823038556,6,Deutsch ,94,60f866ea13e9f2e5cf2fa8fc,69ab21f669cb2149633884fd,69a59a0dad1eb01904d9ba3f,6771,18416,plastik,1
3482,26,Ein ausgebautes Nahverkehrsnetz entlastet den Stadtverkehr erheblich.,,Bachelor,55362,1772823093918,1772823038556,3,Deutsch ,59,60f866ea13e9f2e5cf2fa8fc,69ab21f669cb2149633884fd,69a59a0dad1eb01904d9ba3f,9071,9071,stadtverkehr,2
3482,26,Ausreichend Schlaf ist entscheidend für die kognitive Leistungsfähigkeit.,,Bachelor,55362,1772823093918,1772823038556,5,Deutsch ,83,60f866ea13e9f2e5cf2fa8fc,69ab21f669cb2149633884fd,69a59a0dad1eb01904d9ba3f,3924,3924,schlaf,3
3482,26,Eine überwiegend pflanzliche Ernährung fördert die Gesundheit.,,Bachelor,55362,1772823093918,1772823038556,2,Deutsch ,23,60f866ea13e9f2e5cf2fa8fc,69ab21f669cb2149633884fd,69a59a0dad1eb01904d9ba3f,3021,3021,ernaehrung,4
3482,26,Der Einkauf bei lokalen Händlern stärkt die regionale Wirtschaft nachhaltig.,,Bachelor,55362,1772823093918,1772823038556,8,Deutsch ,79,60f866ea13e9f2e5cf2fa8fc,69ab21f669cb2149633884fd,69a59a0dad1eb01904d9ba3f,3512,3512,lokalkauf,5
3482,26,Der Klimawandel wird durch menschliche Aktivitäten verursacht.,,Bachelor,55362,1772823093918,1772823038556,1,Deutsch ,83,60f866ea13e9f2e5cf2fa8fc,69ab21f669cb2149633884fd,69a59a0dad1eb01904d9ba3f,2392,2392,klimawandel,6
3482,26,Digitale Kompetenzen sind in der heutigen Arbeitswelt unverzichtbar.,,Bachelor,55362,1772823093918,1772823038556,4,Deutsch ,92,60f866ea13e9f2e5cf2fa8fc,69ab21f669cb2149633884fd,69a59a0dad1eb01904d9ba3f,2517,2517,digitalisierung,7
3482,26,Regelmäßige körperliche Bewegung senkt das Risiko für Herz-Kreislauf-Erkrankungen deutlich.,,Bachelor,55362,1772823093918,1772823038556,7,Deutsch ,90,60f866ea13e9f2e5cf2fa8fc,69ab21f669cb2149633884fd,69a59a0dad1eb01904d9ba3f,2899,2898,sport,8
3469,36,Eine überwiegend pflanzliche Ernährung fördert die Gesundheit.,,Abitur,67604,1772822369175,1772822301571,2,Deutsch,75,6961e323c570d5c7dddafb8b,69ab1f1700f21517a4b64821,69a59a0dad1eb01904d9ba3f,10710,16025,ernaehrung,1
3469,36,Digitale Kompetenzen sind in der heutigen Arbeitswelt unverzichtbar.,,Abitur,67604,1772822369175,1772822301571,4,Deutsch,100,6961e323c570d5c7dddafb8b,69ab1f1700f21517a4b64821,69a59a0dad1eb01904d9ba3f,5100,5100,digitalisierung,2
3469,36,Regelmäßige körperliche Bewegung senkt das Risiko für Herz-Kreislauf-Erkrankungen deutlich.,,Abitur,67604,1772822369175,1772822301571,7,Deutsch,100,6961e323c570d5c7dddafb8b,69ab1f1700f21517a4b64821,69a59a0dad1eb01904d9ba3f,3884,3883,sport,3
3469,36,Ein ausgebautes Nahverkehrsnetz entlastet den Stadtverkehr erheblich.,,Abitur,67604,1772822369175,1772822301571,3,Deutsch,100,6961e323c570d5c7dddafb8b,69ab1f1700f21517a4b64821,69a59a0dad1eb01904d9ba3f,4606,4606,stadtverkehr,4
3469,36,Der Klimawandel wird durch menschliche Aktivitäten verursacht.,,Abitur,67604,1772822369175,1772822301571,1,Deutsch,80,6961e323c570d5c7dddafb8b,69ab1f1700f21517a4b64821,69a59a0dad1eb01904d9ba3f,5515,5515,klimawandel,5
3469,36,Der Einkauf bei lokalen Händlern stärkt die regionale Wirtschaft nachhaltig.,,Abitur,67604,1772822369175,1772822301571,8,Deutsch,95,6961e323c570d5c7dddafb8b,69ab1f1700f21517a4b64821,69a59a0dad1eb01904d9ba3f,6746,6746,lokalkauf,6
3469,36,Einwegplastik schadet den Meeresökosystemen erheblich.,,Abitur,67604,1772822369175,1772822301571,6,Deutsch,100,6961e323c570d5c7dddafb8b,69ab1f1700f21517a4b64821,69a59a0dad1eb01904d9ba3f,3533,3533,plastik,7
3469,36,Ausreichend Schlaf ist entscheidend für die kognitive Leistungsfähigkeit.,,Abitur,67604,1772822369175,1772822301571,5,Deutsch,90,6961e323c570d5c7dddafb8b,69ab1f1700f21517a4b64821,69a59a0dad1eb01904d9ba3f,5346,5346,schlaf,8
3470,41,Einwegplastik schadet den Meeresökosystemen erheblich.,"Keine, danke.",Abitur,110606,1772822411266,1772822300660,6,deutsch,100,697cab984ec33c5f106d4bc7,69ab1f14add3abeeb9b8a952,69a59a0dad1eb01904d9ba3f,12783,47868,plastik,1
3470,41,Ausreichend Schlaf ist entscheidend für die kognitive Leistungsfähigkeit.,"Keine, danke.",Abitur,110606,1772822411266,1772822300660,5,deutsch,90,697cab984ec33c5f106d4bc7,69ab1f14add3abeeb9b8a952,69a59a0dad1eb01904d9ba3f,4492,4492,schlaf,2
3470,41,Der Einkauf bei lokalen Händlern stärkt die regionale Wirtschaft nachhaltig.,"Keine, danke.",Abitur,110606,1772822411266,1772822300660,8,deutsch,100,697cab984ec33c5f106d4bc7,69ab1f14add3abeeb9b8a952,69a59a0dad1eb01904d9ba3f,5972,5972,lokalkauf,3
3470,41,Eine überwiegend pflanzliche Ernährung fördert die Gesundheit.,"Keine, danke.",Abitur,110606,1772822411266,1772822300660,2,deutsch,90,697cab984ec33c5f106d4bc7,69ab1f14add3abeeb9b8a952,69a59a0dad1eb01904d9ba3f,4942,4942,ernaehrung,4
3470,41,Regelmäßige körperliche Bewegung senkt das Risiko für Herz-Kreislauf-Erkrankungen deutlich.,"Keine, danke.",Abitur,110606,1772822411266,1772822300660,7,deutsch,69,697cab984ec33c5f106d4bc7,69ab1f14add3abeeb9b8a952,69a59a0dad1eb01904d9ba3f,8474,8474,sport,5
3470,41,Digitale Kompetenzen sind in der heutigen Arbeitswelt unverzichtbar.,"Keine, danke.",Abitur,110606,1772822411266,1772822300660,4,deutsch,30,697cab984ec33c5f106d4bc7,69ab1f14add3abeeb9b8a952,69a59a0dad1eb01904d9ba3f,11386,11386,digitalisierung,6
3470,41,Ein ausgebautes Nahverkehrsnetz entlastet den Stadtverkehr erheblich.,"Keine, danke.",Abitur,110606,1772822411266,1772822300660,3,deutsch,40,697cab984ec33c5f106d4bc7,69ab1f14add3abeeb9b8a952,69a59a0dad1eb01904d9ba3f,6190,6190,stadtverkehr,7
3470,41,Der Klimawandel wird durch menschliche Aktivitäten verursacht.,"Keine, danke.",Abitur,110606,1772822411266,1772822300660,1,deutsch,70,697cab984ec33c5f106d4bc7,69ab1f14add3abeeb9b8a952,69a59a0dad1eb01904d9ba3f,5330,5330,klimawandel,8
3472,26,Eine überwiegend pflanzliche Ernährung fördert die Gesundheit.,,Abitur,149125,1772822527547,1772822378422,2,deutsch,73,696a812416e5e1af04f6b52a,69ab1f615c62e3c509a157ba,69a59a0dad1eb01904d9ba3f,18522,42030,ernaehrung,1
3472,26,Der Klimawandel wird durch menschliche Aktivitäten verursacht.,,Abitur,149125,1772822527547,1772822378422,1,deutsch,70,696a812416e5e1af04f6b52a,69ab1f615c62e3c509a157ba,69a59a0dad1eb01904d9ba3f,16910,16910,klimawandel,2
3472,26,Der Einkauf bei lokalen Händlern stärkt die regionale Wirtschaft nachhaltig.,,Abitur,149125,1772822527547,1772822378422,8,deutsch,93,696a812416e5e1af04f6b52a,69ab1f615c62e3c509a157ba,69a59a0dad1eb01904d9ba3f,11416,11416,lokalkauf,3
3472,26,Ausreichend Schlaf ist entscheidend für die kognitive Leistungsfähigkeit.,,Abitur,149125,1772822527547,1772822378422,5,deutsch,92,696a812416e5e1af04f6b52a,69ab1f615c62e3c509a157ba,69a59a0dad1eb01904d9ba3f,8640,8640,schlaf,4
3472,26,Einwegplastik schadet den Meeresökosystemen erheblich.,,Abitur,149125,1772822527547,1772822378422,6,deutsch,65,696a812416e5e1af04f6b52a,69ab1f615c62e3c509a157ba,69a59a0dad1eb01904d9ba3f,10655,10655,plastik,5
3472,26,Ein ausgebautes Nahverkehrsnetz entlastet den Stadtverkehr erheblich.,,Abitur,149125,1772822527547,1772822378422,3,deutsch,80,696a812416e5e1af04f6b52a,69ab1f615c62e3c509a157ba,69a59a0dad1eb01904d9ba3f,9062,9062,stadtverkehr,6
3472,26,Regelmäßige körperliche Bewegung senkt das Risiko für Herz-Kreislauf-Erkrankungen deutlich.,,Abitur,149125,1772822527547,1772822378422,7,deutsch,89,696a812416e5e1af04f6b52a,69ab1f615c62e3c509a157ba,69a59a0dad1eb01904d9ba3f,8627,8627,sport,7
3472,26,Digitale Kompetenzen sind in der heutigen Arbeitswelt unverzichtbar.,,Abitur,149125,1772822527547,1772822378422,4,deutsch,83,696a812416e5e1af04f6b52a,69ab1f615c62e3c509a157ba,69a59a0dad1eb01904d9ba3f,31040,31040,digitalisierung,8
3473,46,Einwegplastik schadet den Meeresökosystemen erheblich.,,Abitur,131631,1772822571125,1772822439494,6,Deutsch,95,691599bbb045698162b8cd17,69ab1f9df6600ddc324c13e4,69a59a0dad1eb01904d9ba3f,18927,37363,plastik,1
3473,46,Digitale Kompetenzen sind in der heutigen Arbeitswelt unverzichtbar.,,Abitur,131631,1772822571125,1772822439494,4,Deutsch,69,691599bbb045698162b8cd17,69ab1f9df6600ddc324c13e4,69a59a0dad1eb01904d9ba3f,7506,7506,digitalisierung,2
3473,46,Ausreichend Schlaf ist entscheidend für die kognitive Leistungsfähigkeit.,,Abitur,131631,1772822571125,1772822439494,5,Deutsch,65,691599bbb045698162b8cd17,69ab1f9df6600ddc324c13e4,69a59a0dad1eb01904d9ba3f,13371,13371,schlaf,3
3473,46,Der Klimawandel wird durch menschliche Aktivitäten verursacht.,,Abitur,131631,1772822571125,1772822439494,1,Deutsch,77,691599bbb045698162b8cd17,69ab1f9df6600ddc324c13e4,69a59a0dad1eb01904d9ba3f,9605,9605,klimawandel,4
3473,46,Der Einkauf bei lokalen Händlern stärkt die regionale Wirtschaft nachhaltig.,,Abitur,131631,1772822571125,1772822439494,8,Deutsch,56,691599bbb045698162b8cd17,69ab1f9df6600ddc324c13e4,69a59a0dad1eb01904d9ba3f,8339,8339,lokalkauf,5
3473,46,Regelmäßige körperliche Bewegung senkt das Risiko für Herz-Kreislauf-Erkrankungen deutlich.,,Abitur,131631,1772822571125,1772822439494,7,Deutsch,73,691599bbb045698162b8cd17,69ab1f9df6600ddc324c13e4,69a59a0dad1eb01904d9ba3f,15392,15392,sport,6
3473,46,Eine überwiegend pflanzliche Ernährung fördert die Gesundheit.,,Abitur,131631,1772822571125,1772822439494,2,Deutsch,44,691599bbb045698162b8cd17,69ab1f9df6600ddc324c13e4,69a59a0dad1eb01904d9ba3f,6533,6534,ernaehrung,7
3473,46,Ein ausgebautes Nahverkehrsnetz entlastet den Stadtverkehr erheblich.,,Abitur,131631,1772822571125,1772822439494,3,Deutsch,41,691599bbb045698162b8cd17,69ab1f9df6600ddc324c13e4,69a59a0dad1eb01904d9ba3f,14422,14422,stadtverkehr,8
3474,47,Ein ausgebautes Nahverkehrsnetz entlastet den Stadtverkehr erheblich.,,Höherer Abschluss,67783,1772822659499,1772822591716,3,Deutsch,91,6914c90c80bcbb0ee3307396,69ab203d8e43d6469200eae0,69a59a0dad1eb01904d9ba3f,5183,24429,stadtverkehr,1
3474,47,Ausreichend Schlaf ist entscheidend für die kognitive Leistungsfähigkeit.,,Höherer Abschluss,67783,1772822659499,1772822591716,5,Deutsch,85,6914c90c80bcbb0ee3307396,69ab203d8e43d6469200eae0,69a59a0dad1eb01904d9ba3f,3956,3956,schlaf,2
3474,47,Der Klimawandel wird durch menschliche Aktivitäten verursacht.,,Höherer Abschluss,67783,1772822659499,1772822591716,1,Deutsch,81,6914c90c80bcbb0ee3307396,69ab203d8e43d6469200eae0,69a59a0dad1eb01904d9ba3f,3402,3402,klimawandel,3
3474,47,Digitale Kompetenzen sind in der heutigen Arbeitswelt unverzichtbar.,,Höherer Abschluss,67783,1772822659499,1772822591716,4,Deutsch,88,6914c90c80bcbb0ee3307396,69ab203d8e43d6469200eae0,69a59a0dad1eb01904d9ba3f,4176,4176,digitalisierung,4
3474,47,Eine überwiegend pflanzliche Ernährung fördert die Gesundheit.,,Höherer Abschluss,67783,1772822659499,1772822591716,2,Deutsch,40,6914c90c80bcbb0ee3307396,69ab203d8e43d6469200eae0,69a59a0dad1eb01904d9ba3f,4774,4774,ernaehrung,5
3474,47,Einwegplastik schadet den Meeresökosystemen erheblich.,,Höherer Abschluss,67783,1772822659499,1772822591716,6,Deutsch,77,6914c90c80bcbb0ee3307396,69ab203d8e43d6469200eae0,69a59a0dad1eb01904d9ba3f,5796,5796,plastik,6
3474,47,Regelmäßige körperliche Bewegung senkt das Risiko für Herz-Kreislauf-Erkrankungen deutlich.,,Höherer Abschluss,67783,1772822659499,1772822591716,7,Deutsch,90,6914c90c80bcbb0ee3307396,69ab203d8e43d6469200eae0,69a59a0dad1eb01904d9ba3f,4666,4666,sport,7
3474,47,Der Einkauf bei lokalen Händlern stärkt die regionale Wirtschaft nachhaltig.,,Höherer Abschluss,67783,1772822659499,1772822591716,8,Deutsch,65,6914c90c80bcbb0ee3307396,69ab203d8e43d6469200eae0,69a59a0dad1eb01904d9ba3f,4608,4608,lokalkauf,8
3475,42,Ein ausgebautes Nahverkehrsnetz entlastet den Stadtverkehr erheblich.,,Bachelor,289374,1772822663839,1772822374465,3,deutsch,65,6902970adc75f80b4ab2bf87,69ab1f5d20ec3121e6a14774,69a59a0dad1eb01904d9ba3f,9192,54432,stadtverkehr,1
3475,42,Regelmäßige körperliche Bewegung senkt das Risiko für Herz-Kreislauf-Erkrankungen deutlich.,,Bachelor,289374,1772822663839,1772822374465,7,deutsch,75,6902970adc75f80b4ab2bf87,69ab1f5d20ec3121e6a14774,69a59a0dad1eb01904d9ba3f,36272,36272,sport,2
3475,42,Der Klimawandel wird durch menschliche Aktivitäten verursacht.,,Bachelor,289374,1772822663839,1772822374465,1,deutsch,70,6902970adc75f80b4ab2bf87,69ab1f5d20ec3121e6a14774,69a59a0dad1eb01904d9ba3f,34560,34560,klimawandel,3
3475,42,Der Einkauf bei lokalen Händlern stärkt die regionale Wirtschaft nachhaltig.,,Bachelor,289374,1772822663839,1772822374465,8,deutsch,90,6902970adc75f80b4ab2bf87,69ab1f5d20ec3121e6a14774,69a59a0dad1eb01904d9ba3f,32184,32183,lokalkauf,4
3475,42,Ausreichend Schlaf ist entscheidend für die kognitive Leistungsfähigkeit.,,Bachelor,289374,1772822663839,1772822374465,5,deutsch,80,6902970adc75f80b4ab2bf87,69ab1f5d20ec3121e6a14774,69a59a0dad1eb01904d9ba3f,37679,37679,schlaf,5
3475,42,Eine überwiegend pflanzliche Ernährung fördert die Gesundheit.,,Bachelor,289374,1772822663839,1772822374465,2,deutsch,20,6902970adc75f80b4ab2bf87,69ab1f5d20ec3121e6a14774,69a59a0dad1eb01904d9ba3f,39391,39392,ernaehrung,6
3475,42,Digitale Kompetenzen sind in der heutigen Arbeitswelt unverzichtbar.,,Bachelor,289374,1772822663839,1772822374465,4,deutsch,75,6902970adc75f80b4ab2bf87,69ab1f5d20ec3121e6a14774,69a59a0dad1eb01904d9ba3f,12072,12072,digitalisierung,7
3475,42,Einwegplastik schadet den Meeresökosystemen erheblich.,,Bachelor,289374,1772822663839,1772822374465,6,deutsch,75,6902970adc75f80b4ab2bf87,69ab1f5d20ec3121e6a14774,69a59a0dad1eb01904d9ba3f,28575,28575,plastik,8
3476,46,Ausreichend Schlaf ist entscheidend für die kognitive Leistungsfähigkeit.,,Höherer Abschluss,97632,1772822669410,1772822571778,5,deutsch,94,5f298b2b7823df0a46e25d81,69ab202314bcd393e1aec3cf,69a59a0dad1eb01904d9ba3f,7743,29031,schlaf,1
3476,46,Der Klimawandel wird durch menschliche Aktivitäten verursacht.,,Höherer Abschluss,97632,1772822669410,1772822571778,1,deutsch,79,5f298b2b7823df0a46e25d81,69ab202314bcd393e1aec3cf,69a59a0dad1eb01904d9ba3f,6223,6223,klimawandel,2
3476,46,Einwegplastik schadet den Meeresökosystemen erheblich.,,Höherer Abschluss,97632,1772822669410,1772822571778,6,deutsch,84,5f298b2b7823df0a46e25d81,69ab202314bcd393e1aec3cf,69a59a0dad1eb01904d9ba3f,8153,8153,plastik,3
3476,46,Ein ausgebautes Nahverkehrsnetz entlastet den Stadtverkehr erheblich.,,Höherer Abschluss,97632,1772822669410,1772822571778,3,deutsch,61,5f298b2b7823df0a46e25d81,69ab202314bcd393e1aec3cf,69a59a0dad1eb01904d9ba3f,8600,8600,stadtverkehr,4
3476,46,Eine überwiegend pflanzliche Ernährung fördert die Gesundheit.,,Höherer Abschluss,97632,1772822669410,1772822571778,2,deutsch,56,5f298b2b7823df0a46e25d81,69ab202314bcd393e1aec3cf,69a59a0dad1eb01904d9ba3f,6297,6297,ernaehrung,5
3476,46,Der Einkauf bei lokalen Händlern stärkt die regionale Wirtschaft nachhaltig.,,Höherer Abschluss,97632,1772822669410,1772822571778,8,deutsch,79,5f298b2b7823df0a46e25d81,69ab202314bcd393e1aec3cf,69a59a0dad1eb01904d9ba3f,5038,5038,lokalkauf,6
3476,46,Regelmäßige körperliche Bewegung senkt das Risiko für Herz-Kreislauf-Erkrankungen deutlich.,,Höherer Abschluss,97632,1772822669410,1772822571778,7,deutsch,93,5f298b2b7823df0a46e25d81,69ab202314bcd393e1aec3cf,69a59a0dad1eb01904d9ba3f,5674,5674,sport,7
3476,46,Digitale Kompetenzen sind in der heutigen Arbeitswelt unverzichtbar.,,Höherer Abschluss,97632,1772822669410,1772822571778,4,deutsch,86,5f298b2b7823df0a46e25d81,69ab202314bcd393e1aec3cf,69a59a0dad1eb01904d9ba3f,7431,7431,digitalisierung,8
3477,31,Eine überwiegend pflanzliche Ernährung fördert die Gesundheit.,,kein Abitur,76630,1772822763295,1772822686665,2,Deutsch,31,63fcf31e484a95608847d761,69ab2099a23476103aec043a,69a59a0dad1eb01904d9ba3f,7693,23918,ernaehrung,1
3477,31,Ausreichend Schlaf ist entscheidend für die kognitive Leistungsfähigkeit.,,kein Abitur,76630,1772822763295,1772822686665,5,Deutsch,60,63fcf31e484a95608847d761,69ab2099a23476103aec043a,69a59a0dad1eb01904d9ba3f,6050,6050,schlaf,2
3477,31,Ein ausgebautes Nahverkehrsnetz entlastet den Stadtverkehr erheblich.,,kein Abitur,76630,1772822763295,1772822686665,3,Deutsch,10,63fcf31e484a95608847d761,69ab2099a23476103aec043a,69a59a0dad1eb01904d9ba3f,6273,6273,stadtverkehr,3
3477,31,Digitale Kompetenzen sind in der heutigen Arbeitswelt unverzichtbar.,,kein Abitur,76630,1772822763295,1772822686665,4,Deutsch,40,63fcf31e484a95608847d761,69ab2099a23476103aec043a,69a59a0dad1eb01904d9ba3f,6775,6775,digitalisierung,4
3477,31,Einwegplastik schadet den Meeresökosystemen erheblich.,,kein Abitur,76630,1772822763295,1772822686665,6,Deutsch,75,63fcf31e484a95608847d761,69ab2099a23476103aec043a,69a59a0dad1eb01904d9ba3f,4656,4656,plastik,5
3477,31,Regelmäßige körperliche Bewegung senkt das Risiko für Herz-Kreislauf-Erkrankungen deutlich.,,kein Abitur,76630,1772822763295,1772822686665,7,Deutsch,90,63fcf31e484a95608847d761,69ab2099a23476103aec043a,69a59a0dad1eb01904d9ba3f,5675,5675,sport,6
3477,31,Der Einkauf bei lokalen Händlern stärkt die regionale Wirtschaft nachhaltig.,,kein Abitur,76630,1772822763295,1772822686665,8,Deutsch,90,63fcf31e484a95608847d761,69ab2099a23476103aec043a,69a59a0dad1eb01904d9ba3f,3623,3623,lokalkauf,7
3477,31,Der Klimawandel wird durch menschliche Aktivitäten verursacht.,,kein Abitur,76630,1772822763295,1772822686665,1,Deutsch,45,63fcf31e484a95608847d761,69ab2099a23476103aec043a,69a59a0dad1eb01904d9ba3f,4026,4026,klimawandel,8
3478,26,Der Einkauf bei lokalen Händlern stärkt die regionale Wirtschaft nachhaltig.,,Bachelor,51912,1772822956127,1772822904215,8,Deutsch,86,631688f3ae7064f6b389cfbd,69ab2174d8e719147556edee,69a59a0dad1eb01904d9ba3f,4961,16182,lokalkauf,1
3478,26,Regelmäßige körperliche Bewegung senkt das Risiko für Herz-Kreislauf-Erkrankungen deutlich.,,Bachelor,51912,1772822956127,1772822904215,7,Deutsch,85,631688f3ae7064f6b389cfbd,69ab2174d8e719147556edee,69a59a0dad1eb01904d9ba3f,3918,3918,sport,2
3478,26,Ausreichend Schlaf ist entscheidend für die kognitive Leistungsfähigkeit.,,Bachelor,51912,1772822956127,1772822904215,5,Deutsch,78,631688f3ae7064f6b389cfbd,69ab2174d8e719147556edee,69a59a0dad1eb01904d9ba3f,2849,2849,schlaf,3
3478,26,Ein ausgebautes Nahverkehrsnetz entlastet den Stadtverkehr erheblich.,,Bachelor,51912,1772822956127,1772822904215,3,Deutsch,87,631688f3ae7064f6b389cfbd,69ab2174d8e719147556edee,69a59a0dad1eb01904d9ba3f,3865,3865,stadtverkehr,4
3478,26,Der Klimawandel wird durch menschliche Aktivitäten verursacht.,,Bachelor,51912,1772822956127,1772822904215,1,Deutsch,80,631688f3ae7064f6b389cfbd,69ab2174d8e719147556edee,69a59a0dad1eb01904d9ba3f,3386,3386,klimawandel,5
3478,26,Eine überwiegend pflanzliche Ernährung fördert die Gesundheit.,,Bachelor,51912,1772822956127,1772822904215,2,Deutsch,68,631688f3ae7064f6b389cfbd,69ab2174d8e719147556edee,69a59a0dad1eb01904d9ba3f,3800,3801,ernaehrung,6
3478,26,Einwegplastik schadet den Meeresökosystemen erheblich.,,Bachelor,51912,1772822956127,1772822904215,6,Deutsch,77,631688f3ae7064f6b389cfbd,69ab2174d8e719147556edee,69a59a0dad1eb01904d9ba3f,4620,4620,plastik,7
3478,26,Digitale Kompetenzen sind in der heutigen Arbeitswelt unverzichtbar.,,Bachelor,51912,1772822956127,1772822904215,4,Deutsch,90,631688f3ae7064f6b389cfbd,69ab2174d8e719147556edee,69a59a0dad1eb01904d9ba3f,4004,4004,digitalisierung,8
3479,36,Der Einkauf bei lokalen Händlern stärkt die regionale Wirtschaft nachhaltig.,,Höherer Abschluss,61616,1772822959709,1772822898093,8,Deutsch ,85,69308065dce43e2fb6fc54a3,69ab2167024dc53306bd4660,69a59a0dad1eb01904d9ba3f,8597,17046,lokalkauf,1
3479,36,Digitale Kompetenzen sind in der heutigen Arbeitswelt unverzichtbar.,,Höherer Abschluss,61616,1772822959709,1772822898093,4,Deutsch ,100,69308065dce43e2fb6fc54a3,69ab2167024dc53306bd4660,69a59a0dad1eb01904d9ba3f,2757,2757,digitalisierung,2
3479,36,Eine überwiegend pflanzliche Ernährung fördert die Gesundheit.,,Höherer Abschluss,61616,1772822959709,1772822898093,2,Deutsch ,75,69308065dce43e2fb6fc54a3,69ab2167024dc53306bd4660,69a59a0dad1eb01904d9ba3f,7210,7210,ernaehrung,3
3479,36,Einwegplastik schadet den Meeresökosystemen erheblich.,,Höherer Abschluss,61616,1772822959709,1772822898093,6,Deutsch ,100,69308065dce43e2fb6fc54a3,69ab2167024dc53306bd4660,69a59a0dad1eb01904d9ba3f,3206,3206,plastik,4
3479,36,Ausreichend Schlaf ist entscheidend für die kognitive Leistungsfähigkeit.,,Höherer Abschluss,61616,1772822959709,1772822898093,5,Deutsch ,100,69308065dce43e2fb6fc54a3,69ab2167024dc53306bd4660,69a59a0dad1eb01904d9ba3f,7460,7460,schlaf,5
